accx,accy,accz
-0.015,0.186,-0.443
0.015,0.243,-0.281
-0.03,0.194,-0.141
-0.011,0.123,-0.126
0.026,0.103,-0.055
0.026,0.103,-0.055
0.1,0.129,0.161
0.133,0.076,0.138
0.133,0.076,0.138
0.174,0.032,0.162
0.174,0.032,0.162
0.152,-0.042,0.272
0.225,-0.066,0.266
0.256,-0.066,0.247
0.23,-0.053,0.241
0.236,-0.051,0.201
0.263,-0.032,0.177
0.253,-0.101,0.258
0.208,-0.08,0.333
0.232,-0.131,0.359
0.251,-0.15,0.333
0.248,-0.113,0.338
0.244,-0.061,0.285
0.27,-0.051,0.271
0.257,-0.08,0.254
0.192,-0.078,0.23
0.219,-0.126,0.163
0.197,-0.16,0.128
0.171,-0.148,0.082
0.13,-0.093,0.046
0.146,-0.064,-0.006
0.146,-0.042,-0.074
0.109,-0.016,-0.071
0.086,0.005,-0.085
0.05,-0.017,-0.094
0.067,-0.053,-0.129
0.009,-0.052,-0.166
-0.024,-0.005,-0.203
-0.072,0.053,-0.232
-0.033,0.128,-0.226
-0.039,0.159,-0.229
-0.064,0.135,-0.225
-0.091,0.122,-0.189
-0.156,0.074,-0.143
-0.129,0.024,-0.162
-0.177,0.04,-0.115
-0.163,0.069,-0.1
-0.197,0.131,-0.064
-0.163,0.138,-0.106
-0.177,0.068,-0.114
-0.194,0.062,-0.104
-0.225,0.035,-0.089
-0.231,0.008,-0.123
-0.216,0.005,-0.089
-0.219,-0.016,-0.085
-0.2,-0.011,-0.117
-0.244,0.019,-0.184
-0.204,-0.015,-0.167
-0.214,-0.009,-0.225
-0.203,-0.02,-0.197
-0.206,-0.018,-0.107
-0.22,-0.077,-0.074
-0.168,-0.113,-0.079
-0.179,-0.126,-0.17
-0.184,-0.107,-0.147
-0.167,-0.074,-0.183
-0.152,-0.087,-0.163
-0.142,-0.118,-0.104
-0.144,-0.157,-0.051
-0.139,-0.203,-0.008
-0.066,-0.272,0.019
-0.088,-0.263,0.058
-0.078,-0.243,0.126
-0.014,-0.261,0.093
0.027,-0.223,0.012
0.004,-0.177,0.018
-0.062,0.073,-0.023
-0.052,0.07,-0.172
-0.047,0.107,-0.233
-0.017,0.157,-0.201
-0.037,0.149,-0.119
-0.057,0.128,-0.073
-0.037,0.078,-0.07
-0.037,0.078,-0.07
-0.049,0.162,-0.056
-0.049,0.162,-0.056
-0.049,0.168,-0.031
-0.036,0.179,0.055
-0.036,0.179,0.055
0.012,0.128,0.022
0.012,0.128,0.022
-0.032,0.161,-0.01
-0.01,0.135,-0.054
0.014,0.138,-0.053
0.02,0.097,0.043
0.02,0.097,0.043
0.003,0.052,0.048
0.016,0.043,0.075
0.016,0.043,0.075
0.049,0.008,0.071
0.049,0.008,0.071
0.055,0.011,0.112
0.048,0.013,0.124
0.048,0.013,0.124
0.062,0.013,0.013
0.055,0.02,0.015
0.055,0.02,0.015
0.045,-0.031,0.012
0.033,-0.028,-0.061
0.04,0.003,-0.093
0.04,0.003,-0.093
0.028,0.005,-0.064
0.042,0.013,-0.045
-0.002,-0.045,-0.005
-0.027,-0.093,0.08
-0.051,-0.128,0.119
-0.051,-0.128,0.119
-0.042,-0.161,0.109
-0.009,-0.185,0.14
-0.028,-0.141,0.03
-0.028,-0.141,0.03
-0.01,-0.115,-0.215
-0.025,-0.021,-0.457
-0.025,-0.021,-0.457
0.003,0.024,-0.495
0.019,-0.028,-0.503
0.014,-0.018,-0.495
0.004,-0.118,-0.519
0.004,-0.118,-0.519
-0.004,-0.085,-0.526
-0.004,-0.085,-0.526
-0.002,-0.037,-0.423
0.035,-0.093,-0.186
0.035,-0.093,-0.186
-0.004,-0.137,-0.039
-0.004,-0.137,-0.039
-0.04,-0.129,-0.043
-0.009,-0.097,0.018
-0.009,-0.097,0.018
0.015,0.015,0.042
0.015,0.015,0.042
-0.006,0.042,0.089
-0.093,0.017,0.224
-0.093,0.017,0.224
-0.073,0.02,0.304
-0.073,0.02,0.304
-0.045,0.063,0.276
-0.029,0.123,0.289
-0.029,0.123,0.289
0.011,0.185,0.186
0.011,0.185,0.186
0.007,0.224,0.189
0.048,0.177,0.164
0.048,0.177,0.164
0.056,0.143,0.092
0.042,0.108,0.176
0.043,0.044,0.177
0.115,0.038,0.127
0.077,0.029,0.095
0.158,0.023,0.125
0.173,-0.002,0.051
0.155,-0.03,0.018
0.129,-0.034,-0.006
0.123,-0.039,-0.035
0.15,-0.091,-0.046
0.134,-0.057,-0.086
0.145,-0.027,-0.097
0.132,-0.051,-0.126
0.135,-0.073,-0.059
0.111,-0.096,-0.115
0.061,-0.091,-0.094
0.022,-0.092,-0.094
0.056,-0.09,-0.082
0,-0.004,0
-0.035,-0.018,-0.024
-0.057,-0.006,-0.005
-0.075,-0.018,0.072
-0.101,-0.028,0.061
-0.097,0.026,0.005
-0.1,0.031,-0.032
-0.129,0.091,-0.015
-0.155,0.168,-0.056
-0.172,0.18,-0.12
-0.185,0.2,-0.144
-0.219,0.162,-0.087
-0.224,0.138,-0.067
-0.249,0.138,-0.036
-0.233,0.153,-0.041
-0.229,0.132,-0.027
-0.261,0.182,0.001
-0.227,0.144,0.041
-0.22,0.133,0.068
-0.219,0.066,0.063
-0.224,0.086,0.073
-0.224,0.043,0.057
-0.215,0.079,0.065
-0.192,0.094,0.012
-0.187,0.118,-0.008
-0.166,0.118,-0.105
-0.112,0.147,-0.123
-0.12,0.127,-0.06
-0.133,0.104,-0.008
-0.139,0.041,0.017
-0.153,-0.006,0.104
-0.11,-0.042,0.154
-0.151,-0.072,0.092
-0.103,-0.024,0.099
-0.065,0.006,0.082
-0.089,0.008,0.025
-0.113,0.06,-0.048
-0.136,0.059,-0.072
-0.136,0.059,-0.072
-0.112,0.057,-0.127
-0.084,0.1,-0.16
-0.12,0.095,-0.144
-0.128,0.104,-0.199
-0.128,0.104,-0.199
-0.109,0.095,-0.175
-0.102,0.092,-0.036
-0.111,0.068,0.037
-0.102,0.05,0.046
-0.102,0.05,0.046
-0.08,0.024,0.032
-0.104,0.022,0.012
-0.083,0.046,0.034
-0.116,0.067,0.026
-0.08,0.048,0.101
-0.066,-0.038,0.1
-0.094,-0.037,0.081
-0.083,-0.049,0.038
-0.083,-0.039,0.061
-0.083,-0.039,0.061
-0.061,0.015,0.054
-0.102,0.003,-0.019
-0.066,0.01,-0.027
-0.104,0.083,-0.065
-0.104,0.083,-0.065
-0.107,0.102,-0.132
-0.143,0.107,-0.144
-0.143,0.113,-0.082
-0.159,0.027,-0.01
-0.159,0.027,-0.01
-0.151,0.02,-0.017
-0.165,0.018,-0.017
-0.184,0.032,0.016
-0.162,0.052,0.035
-0.178,0.078,0.037
-0.214,0.129,0.076
-0.214,0.129,0.076
-0.178,0.095,0.085
-0.216,0.075,0.08
-0.216,0.075,0.08
-0.193,0.075,-0.01
-0.193,0.075,-0.01
-0.181,0.096,0.018
-0.164,0.082,0.054
-0.164,0.082,0.054
-0.202,-0.039,0.085
-0.19,-0.03,0.071
-0.19,-0.03,0.071
-0.189,0.005,-0.021
-0.189,0.005,-0.021
-0.173,0.062,0
-0.182,0.1,-0.066
-0.146,0.081,-0.107
-0.158,0.02,-0.08
-0.158,0.02,-0.08
-0.172,-0.087,-0.03
-0.172,-0.087,-0.03
-0.189,-0.054,-0.085
-0.165,0.007,-0.133
-0.165,0.007,-0.133
-0.212,0.117,-0.109
-0.212,0.117,-0.109
-0.217,0.134,-0.126
-0.26,0.064,-0.059
-0.26,0.064,-0.059
-0.251,0.026,-0.086
-0.23,0.019,-0.021
-0.23,0.019,-0.021
-0.211,0.038,0.09
-0.211,0.038,0.09
-0.163,0.057,0.052
-0.163,0.057,0.052
-0.149,0.083,0.031
-0.201,0.078,-0.028
-0.201,0.078,-0.028
-0.206,0.055,0.064
-0.206,0.055,0.064
-0.144,0.038,0.086
-0.122,0.072,-0.155
-0.122,0.072,-0.155
-0.131,0.134,-0.15
-0.131,0.134,-0.15
-0.128,0.115,-0.086
-0.128,0.084,-0.029
-0.117,0.007,-0.07
-0.136,0.031,-0.053
-0.167,0.06,-0.051
-0.157,0.068,-0.02
-0.183,0.073,0.07
-0.205,0.063,0.123
-0.202,0.018,0.199
-0.18,-0.008,0.199
-0.18,-0.008,0.199
-0.213,0.022,0.104
-0.233,0.036,0.128
-0.24,0.081,0.109
-0.245,0.091,0.018
-0.211,0.108,-0.016
-0.213,0.093,-0.016
-0.309,0.115,-0.074
-0.275,0.122,-0.05
-0.254,0.069,-0.052
-0.23,0.081,-0.045
-0.239,0.098,-0.04
-0.228,0.072,-0.091
-0.24,0.077,-0.091
-0.269,0.053,-0.01
-0.25,0.041,-0.01
-0.234,0.025,0
-0.208,-0.012,-0.029
-0.236,0.004,-0.024
-0.213,-0.002,0.001
-0.196,-0.029,-0.036
-0.237,-0.036,-0.136
-0.214,-0.009,-0.177
-0.23,0.004,-0.186
-0.235,0.023,-0.148
-0.164,0.027,-0.143
-0.195,0.022,-0.109
-0.209,-0.008,-0.001
-0.21,-0.066,0.01
-0.232,-0.068,0.003
-0.217,-0.092,-0.056
-0.191,-0.059,-0.032
-0.213,-0.023,0.014
-0.201,0.016,0.074
-0.22,-0.002,0.019
-0.248,-0.004,0.026
-0.261,0.023,0.069
-0.259,-0.038,0.047
-0.264,-0.016,-0.012
-0.216,0.019,0.013
-0.269,0.062,-0.019
-0.194,0.09,-0.005
-0.201,0.172,-0.069
-0.163,0.203,-0.079
-0.186,0.2,-0.071
-0.208,0.156,-0.052
-0.198,0.149,0.019
-0.202,0.086,0.029
-0.202,0.086,0.029
-0.151,0.088,0.053
-0.194,0.084,0.086
-0.148,0.086,0.082
-0.174,0.103,0.12
-0.109,0.084,0.18
-0.171,0.079,0.141
-0.156,0.048,0.072
-0.166,0.05,0
-0.161,0.07,-0.004
-0.142,0.111,-0.013
-0.171,0.104,-0.004
-0.142,0.097,0.004
-0.173,0.054,0.047
-0.176,0.035,0.026
-0.192,0.002,0.011
-0.217,0.021,0.028
-0.217,0.021,0.028
-0.185,0.064,0.035
-0.219,0.033,0.071
-0.221,0.057,0.033
-0.203,0.036,-0.04
-0.203,0.036,-0.04
-0.232,0.024,-0.047
-0.199,0.036,-0.055
-0.235,0.041,-0.088
-0.247,0.056,-0.012
-0.247,0.056,-0.012
-0.25,0.032,0.008
-0.243,0.001,-0.003
-0.248,0.011,-0.001
-0.272,-0.037,0.072
-0.272,-0.037,0.072
-0.273,0.001,0.065
-0.273,0.001,0.065
-0.268,0.004,0.115
-0.259,-0.033,0.044
-0.259,-0.033,0.044
-0.257,-0.028,0.015
-0.269,-0.016,0.036
-0.29,0.004,0.01
-0.285,0.028,-0.06
-0.285,0.028,-0.06
-0.282,0.013,0.004
-0.292,0.003,-0.019
-0.292,0.003,-0.019
-0.251,-0.007,-0.129
-0.251,-0.007,-0.129
-0.282,0.04,-0.217
-0.277,0.083,-0.207
-0.237,0.058,-0.231
-0.256,0.055,-0.262
-0.256,0.055,-0.262
-0.33,0.017,-0.271
-0.311,0.036,-0.262
-0.289,-0.023,-0.166
-0.294,-0.013,-0.092
-0.294,-0.013,-0.092
-0.297,-0.014,-0.022
-0.281,-0.033,-0.025
-0.245,0.009,0.02
-0.266,0.019,0.123
-0.251,-0.006,0.163
-0.251,-0.006,0.163
-0.241,-0.049,0.228
-0.241,-0.049,0.228
-0.24,-0.03,0.081
-0.24,-0.03,0.081
-0.238,0.023,0.045
-0.223,0.025,0.016
-0.245,0.078,-0.009
-0.211,0.047,-0.014
-0.211,0.047,-0.014
-0.215,0,0.009
-0.2,-0.041,-0.014
-0.2,-0.041,-0.014
-0.184,-0.072,-0.032
-0.184,-0.072,-0.032
-0.222,-0.062,0.082
-0.208,-0.064,0.029
-0.208,-0.064,0.029
-0.268,-0.095,0.029
-0.268,-0.095,0.029
-0.277,-0.046,0.048
-0.258,-0.075,-0.006
-0.253,-0.039,0.029
-0.38,-0.042,0.096
-0.38,-0.042,0.096
-0.323,-0.08,-0.03
-0.354,-0.046,-0.002
-0.334,0.025,-0.006
-0.342,0.003,-0.04
-0.296,-0.049,-0.028
-0.323,0.036,-0.107
-0.313,-0.018,-0.133
-0.327,0.008,-0.118
-0.311,-0.003,-0.161
-0.306,0.01,-0.226
-0.302,0.018,-0.24
-0.304,0.013,-0.185
-0.311,-0.027,-0.187
-0.28,-0.048,-0.216
-0.073,-0.066,-0.22
-0.037,-0.151,-0.132
-0.063,-0.158,-0.095
-0.012,-0.171,-0.054
-0.026,-0.185,-0.053
-0.017,-0.163,-0.005
-0.023,-0.145,-0.018
-0.022,-0.181,0.006
-0.028,-0.228,0.02
-0.06,0.029,0.027
-0.067,0.017,0.018
0.003,0.04,0.032
0.006,0.054,0.03
-0.005,0.047,-0.065
-0.039,0.08,-0.096
-0.005,0.128,-0.17
-0.029,0.118,-0.182
-0.047,0.18,-0.168
-0.021,0.178,-0.12
-0.064,0.125,-0.091
-0.1,0.113,-0.062
-0.048,0.14,-0.106
-0.047,0.132,-0.142
-0.057,0.13,-0.147
-0.035,0.19,-0.149
-0.03,0.192,-0.082
-0.013,0.152,-0.015
-0.001,0.183,0.048
-0.025,0.14,0.012
0.055,-0.01,0.075
0.041,0.012,0.134
0.031,-0.055,0.19
0.048,-0.038,0.24
0.043,-0.065,0.226
0.059,-0.009,0.154
0.072,0.009,0.113
0.09,0.03,0.088
0.096,0.073,0.033
0.106,0.045,-0.005
0.061,0.044,-0.013
0.094,-0.039,-0.102
0.094,-0.039,-0.102
0.11,-0.008,-0.129
0.01,0.034,-0.088
0.071,0.053,-0.024
0.035,-0.009,-0.003
-0.015,-0.032,-0.02
-0.062,-0.032,0.036
-0.083,-0.029,0.102
-0.083,-0.029,0.102
-0.054,-0.041,0.051
-0.075,-0.041,-0.039
-0.075,-0.041,-0.039
-0.089,0.071,-0.045
-0.089,0.071,-0.045
-0.094,0.032,-0.039
-0.075,0,-0.009
-0.075,0,-0.009
-0.11,-0.003,-0.082
-0.11,-0.003,-0.082
-0.083,-0.023,-0.083
-0.083,-0.023,-0.083
-0.058,0.038,-0.058
-0.013,-0.008,-0.026
-0.006,-0.027,-0.037
0.018,-0.104,-0.011
0.018,-0.104,-0.011
-0.014,-0.08,-0.083
-0.015,-0.07,-0.135
-0.015,-0.07,-0.135
0.009,-0.022,0.002
0.032,-0.051,-0.019
0.032,-0.051,-0.019
0.01,-0.058,-0.085
0.01,-0.058,-0.085
-0.02,-0.075,0.039
-0.025,-0.073,0.058
-0.025,-0.073,0.058
0.002,-0.036,0.001
0.002,-0.036,0.001
0.007,0.011,-0.091
0.007,0.011,-0.091
0.017,-0.01,-0.002
-0.05,-0.028,0.069
-0.05,-0.028,0.069
-0.037,-0.063,0.08
-0.02,-0.093,0.115
-0.032,-0.041,0.068
-0.015,0.01,0.069
-0.011,0.016,0.083
0.046,0.006,0.095
0.025,-0.005,0.084
0.018,0.002,0.084
0.074,-0.008,0.007
0.074,-0.008,0.007
0.048,0.075,0
0.048,0.075,0
0.038,0.071,0.04
0.062,0.018,-0.035
0.062,0.018,-0.035
0.02,0.025,-0.078
0.02,0.025,-0.078
0.054,0.059,-0.054
0.043,0.059,-0.016
0.043,0.059,-0.016
0.04,0.008,-0.08
0.026,-0.024,-0.078
0.026,-0.024,-0.078
0.027,0.035,0.01
0.027,0.035,0.01
0.01,-0.026,0.084
0.024,-0.083,0.12
0.024,-0.083,0.12
-0.025,-0.124,0.113
-0.025,-0.124,0.113
-0.019,-0.117,0.182
-0.019,-0.117,0.182
0.001,-0.136,0.17
0.001,-0.11,0.117
0,-0.1,0.05
-0.02,-0.105,0.055
0.007,-0.102,0.084
0.002,-0.083,0.084
0.026,-0.069,0.038
0.018,-0.052,-0.037
0.037,-0.023,-0.073
0.01,-0.066,-0.078
-0.025,-0.047,-0.064
0.001,-0.03,-0.107
-0.006,-0.039,-0.083
0,-0.022,-0.088
0.041,-0.017,-0.09
0.07,-0.058,-0.126
0.012,-0.067,-0.176
-0.003,-0.042,-0.114
0.022,-0.085,-0.04
0.003,-0.073,0.03
0.01,-0.08,0.021
0.031,-0.122,0.04
0.007,-0.127,0.114
0.031,-0.113,0.149
0.016,-0.125,0.145
0.014,-0.151,0.173
0,-0.125,0.113
-0.011,-0.096,0.097
0.021,-0.046,0.089
-0.03,0.015,-0.01
-0.03,0.015,-0.01
-0.029,0.082,-0.123
0.011,0.034,-0.11
0.011,0.034,-0.11
-0.033,0.045,-0.05
-0.033,0.045,-0.05
-0.049,-0.026,0.042
-0.049,-0.026,0.042
-0.058,-0.007,0.001
-0.041,0.033,-0.017
-0.041,0.033,-0.017
-0.029,0.045,0.078
-0.029,0.045,0.078
-0.007,0.012,0.054
0.008,0.052,-0.024
0.008,0.052,-0.024
0.027,0.09,0.031
0.015,0.049,0.081
0.015,0.049,0.081
0.023,-0.08,0.105
0.023,-0.08,0.105
0.047,-0.083,0.077
0.047,-0.083,0.077
0.071,-0.081,0.045
0.083,-0.071,0.081
0.083,-0.071,0.081
0.078,-0.069,-0.004
0.078,-0.069,-0.004
0.078,-0.117,-0.012
0.111,-0.041,-0.067
0.111,-0.041,-0.067
0.077,-0.046,-0.015
0.077,-0.046,-0.015
0.091,-0.087,0.008
0.062,-0.166,0.058
0.062,-0.166,0.058
-0.015,-0.092,0.013
-0.015,-0.092,0.013
-0.001,-0.042,0.063
-0.02,-0.033,0.142
-0.02,-0.033,0.142
-0.054,-0.114,0.099
-0.061,-0.073,0.035
-0.061,-0.073,0.035
-0.035,-0.006,-0.082
-0.035,-0.006,-0.082
-0.049,0.072,-0.058
-0.049,0.072,-0.058
-0.054,0.046,-0.07
-0.081,-0.041,-0.028
-0.081,-0.041,-0.028
-0.063,-0.069,0.002
-0.063,-0.069,0.002
-0.048,-0.052,-0.004
-0.053,-0.046,-0.073
-0.053,-0.046,-0.073
-0.009,-0.106,0.024
-0.009,-0.106,0.024
-0.026,-0.156,0.056
0,-0.144,0.051
0,-0.144,0.051
-0.002,-0.127,0.078
-0.002,-0.127,0.078
-0.007,-0.134,0.066
-0.069,-0.101,0.245
-0.069,-0.101,0.245
-0.05,-0.163,-0.208
-0.05,-0.163,-0.208
-0.059,-0.037,-0.048
-0.047,-0.001,-0.004
-0.018,-0.013,-0.102
-0.018,-0.013,-0.102
-0.052,-0.013,-0.037
-0.052,-0.013,-0.037
-0.088,-0.042,-0.03
-0.102,-0.049,-0.102
-0.09,-0.009,-0.059
-0.082,-0.009,0.019
-0.082,-0.009,0.019
-0.106,-0.006,0.029
-0.104,0.007,0.099
-0.104,0.007,0.099
-0.114,-0.04,0.147
-0.114,-0.04,0.147
-0.073,-0.116,0.027
-0.073,-0.155,0.056
-0.111,-0.116,0.092
-0.061,-0.123,0.032
-0.061,-0.123,0.032
-0.054,-0.158,-0.223
-0.054,-0.158,-0.223
-0.008,-0.156,0.075
-0.025,-0.146,0.12
-0.025,-0.146,0.12
0.015,-0.218,-0.035
0.015,-0.218,-0.035
0.012,-0.191,0.05
-0.008,-0.194,0.066
-0.008,-0.194,0.066
0,-0.295,-0.072
0,-0.295,-0.072
-0.014,-0.331,-0.081
-0.048,-0.288,0.035
-0.048,-0.288,0.035
-0.058,-0.313,-0.129
-0.058,-0.313,-0.129
-0.095,-0.313,0.072
-0.134,-0.337,0.091
-0.134,-0.337,0.091
-0.122,-0.318,0.084
-0.098,-0.337,-0.054
-0.127,-0.301,-0.057
-0.13,-0.229,-0.093
-0.116,-0.222,-0.1
-0.117,-0.222,-0.057
-0.143,-0.229,-0.101
-0.14,-0.27,-0.182
-0.128,-0.282,-0.175
-0.152,-0.325,-0.199
-0.14,-0.296,-0.156
-0.128,-0.325,-0.087
-0.12,-0.334,-0.024
-0.101,-0.377,-0.003
-0.106,-0.389,0.004
-0.101,-0.387,-0.05
-0.12,-0.41,-0.014
-0.101,-0.367,0.002
-0.123,-0.382,0.105
-0.075,-0.504,0.021
-0.063,-0.482,-0.076
-0.046,-0.513,-0.147
-0.073,-0.506,-0.037
-0.108,-0.504,0.01
-0.082,-0.494,-0.006
-0.125,-0.461,-0.016
-0.077,-0.475,-0.08
-0.061,-0.44,-0.045
-0.065,-0.426,-0.071
-0.065,-0.426,-0.071
-0.092,-0.46,-0.095
-0.108,-0.501,-0.076
-0.113,-0.489,-0.047
-0.077,-0.432,-0.057
-0.077,-0.432,-0.057
-0.108,-0.429,-0.045
-0.122,-0.417,-0.059
-0.111,-0.472,-0.071
-0.108,-0.518,-0.062
-0.108,-0.518,-0.062
-0.069,-0.492,-0.129
-0.083,-0.512,-0.179
-0.083,-0.512,-0.179
-0.11,-0.461,-0.179
-0.11,-0.461,-0.179
-0.088,-0.526,-0.138
-0.066,-0.531,-0.188
-0.066,-0.531,-0.188
-0.114,-0.564,-0.193
-0.076,-0.59,-0.155
-0.088,-0.542,-0.079
-0.071,-0.521,-0.038
-0.071,-0.521,-0.038
-0.064,-0.523,-0.055
-0.064,-0.523,-0.055
-0.059,-0.55,-0.084
-0.075,-0.583,-0.025
-0.075,-0.583,-0.025
-0.078,-0.65,-0.053
-0.078,-0.65,-0.053
-0.061,-0.605,0.013
-0.061,-0.605,0.013
-0.037,-0.571,0.061
-0.027,-0.637,-0.088
-0.027,-0.637,-0.088
-0.019,-0.657,-0.076
0.014,-0.628,-0.169
0.014,-0.628,-0.169
0.03,-0.624,-0.25
0.03,-0.624,-0.25
-0.006,-0.643,-0.171
0.019,-0.627,-0.161
0.019,-0.627,-0.161
0.029,-0.639,-0.152
0.029,-0.639,-0.152
0.034,-0.706,-0.094
0.027,-0.754,-0.087
0.027,-0.754,-0.087
0.046,-0.787,-0.018
0.046,-0.787,-0.018
0.058,-0.72,-0.07
0.058,-0.72,-0.07
0.049,-0.735,-0.029
0.058,-0.706,-0.07
0.058,-0.706,-0.07
0.032,-0.749,-0.043
0.055,-0.821,-0.074
0.055,-0.821,-0.074
0.031,-0.808,0.033
0.031,-0.808,0.033
0.065,-0.765,-0.151
0.079,-0.729,-0.149
0.079,-0.729,-0.149
0.077,-0.748,-0.058
0.077,-0.748,-0.058
0.076,-0.791,-0.154
0.102,-0.779,-0.128
0.102,-0.779,-0.128
0.04,-0.123,-0.066
0.04,-0.123,-0.066
0.033,-0.092,-0.108
0.033,-0.079,-0.059
0.033,-0.079,-0.059
0.023,-0.09,-0.059
0.004,-0.031,-0.043
0.007,-0.039,-0.015
0.007,-0.039,-0.015
-0.015,-0.048,0.024
-0.003,-0.045,-0.049
-0.003,-0.045,-0.049
-0.015,0.017,-0.016
-0.015,0.017,-0.016
-0.013,0.041,-0.058
0,-0.011,-0.054
0,-0.011,-0.054
0,0.007,-0.003
0.027,-0.029,-0.099
0.027,-0.029,-0.099
0.036,-0.009,-0.052
-0.004,0.007,0.014
0.006,0.009,-0.004
-0.015,-0.005,-0.006
-0.015,-0.005,-0.006
0.022,-0.049,0.031
0.022,-0.049,0.031
0.067,-0.035,0.025
0.067,-0.035,0.025
0.068,-0.021,-0.09
0.086,0.024,-0.075
0.116,0.011,-0.084
0.074,0.007,-0.043
0.057,0.021,-0.007
0.062,-0.05,0.027
0.081,-0.05,0.009
0.049,-0.055,0.035
0.059,-0.026,0.087
0.036,-0.035,0.08
0.036,-0.035,0.08
0.052,-0.057,0.095
0.069,-0.076,0.104
0.025,-0.08,0.118
0.014,-0.15,0.11
0.006,-0.116,0.082
-0.011,-0.068,0.035
-0.016,-0.003,-0.028
-0.001,0.061,-0.002
0,0.036,0.016
-0.068,0.028,-0.018
-0.084,0.008,-0.057
-0.109,-0.025,-0.064
-0.115,-0.011,-0.032
-0.123,0.024,-0.022
-0.114,0.003,0.003
-0.088,-0.008,-0.035
-0.134,0.044,-0.068
-0.125,0.051,-0.059
-0.154,0.119,-0.145
-0.111,0.128,-0.172
-0.123,0.123,-0.139
-0.139,0.058,-0.081
-0.128,0.077,-0.072
-0.131,0.044,-0.072
-0.095,0.022,-0.02
-0.097,-0.011,0.012
-0.021,0.034,0.001
0.007,0.03,0.001
0.017,0.051,-0.06
0.017,0.051,-0.06
0.042,0.037,-0.074
0.059,0.015,-0.038
0.043,-0.01,-0.07
0.099,0.036,-0.072
0.099,0.036,-0.072
0.143,-0.026,-0.032
0.127,-0.04,-0.038
0.127,-0.04,-0.038
0.101,-0.062,-0.068
0.101,-0.062,-0.068
0.105,-0.023,-0.031
0.105,-0.023,-0.031
0.103,0.008,-0.018
0.083,0.02,-0.119
0.083,0.02,-0.119
0.052,0.027,-0.065
0.04,0.02,-0.046
0.04,0.02,-0.046
0.026,-0.002,-0.004
0.026,-0.002,-0.004
0.041,-0.028,0.097
0.041,-0.028,0.097
0.038,-0.063,0.091
0.008,-0.003,0.077
0.008,-0.003,0.077
0.03,0.053,-0.066
0.047,0.108,-0.142
0.047,0.108,-0.142
0,0.144,-0.178
-0.026,0.065,-0.133
-0.009,-0.013,-0.133
0.002,0.006,-0.133
0.002,0.006,-0.133
0.017,0.028,-0.104
0.017,0.028,-0.104
0.051,0.031,-0.068
0.057,0.014,-0.068
0.057,0.014,-0.068
0.074,-0.018,-0.057
0.06,0.029,0.009
0.067,0.012,-0.016
0.067,0.012,-0.029
0.067,0.012,-0.029
0.086,-0.027,0.006
0.074,-0.106,0.027
0.065,-0.092,0.015
0.067,-0.101,0.027
0.067,-0.101,0.027
0.056,-0.094,0.096
0.056,-0.094,0.096
0.077,-0.054,0.117
0.043,-0.099,0.048
0.043,-0.099,0.048
0.014,-0.085,0.021
0.014,-0.085,0.021
-0.005,-0.081,-0.059
0.006,-0.009,-0.1
0.006,-0.009,-0.1
-0.008,0.048,-0.114
-0.029,0.05,-0.129
-0.08,0.072,-0.215
-0.085,0.074,-0.165
-0.085,0.074,-0.165
-0.06,0.052,-0.16
-0.06,0.052,-0.16
-0.089,0.077,-0.15
-0.096,0.106,-0.147
-0.096,0.106,-0.147
-0.06,0.133,-0.104
-0.074,0.102,-0.061
-0.065,0.078,-0.046
-0.067,0.028,-0.013
-0.067,0.028,-0.013
-0.047,0.026,-0.106
-0.047,0.026,-0.106
-0.016,0.081,-0.038
-0.01,0.05,0.045
-0.01,0.05,0.045
0.003,-0.026,0.109
-0.039,-0.091,0.179
-0.039,-0.091,0.179
0.042,-0.108,0.167
0.032,-0.096,0.057
0.063,-0.041,-0.024
0.063,-0.041,-0.024
0.032,0.046,-0.066
0.006,0.05,-0.119
0.006,0.05,-0.119
-0.006,0.023,-0.202
-0.018,0.025,-0.166
-0.033,0.041,-0.099
-0.059,0.031,-0.061
-0.059,0.031,-0.061
-0.038,0,0.013
-0.038,0,0.013
-0.06,-0.057,0.061
-0.065,-0.062,0.07
-0.065,-0.062,0.07
-0.05,-0.016,-0.037
-0.06,0.028,-0.102
-0.091,0.086,-0.102
-0.07,0.091,-0.078
-0.07,0.091,-0.078
-0.089,-0.006,-0.145
-0.089,-0.006,-0.145
-0.096,-0.001,-0.069
-0.096,-0.001,-0.069
-0.066,-0.01,-0.105
-0.083,0,-0.17
-0.087,0.043,-0.139
-0.061,0.057,-0.086
-0.073,0.071,-0.095
-0.044,0.007,-0.091
-0.046,0.015,-0.067
-0.034,0.027,-0.067
-0.025,0.042,-0.022
-0.037,0.011,-0.019
-0.005,-0.003,0.02
-0.034,-0.026,0.046
-0.014,-0.024,0.029
-0.002,-0.057,0.051
-0.007,-0.048,0.077
-0.009,-0.026,0.065
-0.016,-0.017,0.048
-0.002,0.001,-0.068
-0.004,0.056,-0.212
0.033,0.013,0.192
-0.028,-0.077,0.087
-0.016,-0.068,-0.156
0.006,-0.085,-0.161
-0.041,-0.071,-0.068
-0.039,0.04,0.001
-0.001,0.061,-0.067
-0.027,0.042,-0.096
-0.066,0.036,0
-0.066,0.036,0
-0.073,0.009,-0.076
-0.068,-0.011,-0.083
-0.058,0,-0.013
-0.075,0.062,-0.001
-0.075,0.062,-0.001
-0.039,0.084,-0.092
-0.039,0.084,-0.092
-0.064,0.089,-0.142
-0.083,0.093,-0.147
-0.083,0.093,-0.147
-0.063,0.008,-0.044
-0.063,0.008,-0.044
-0.078,-0.051,-0.018
-0.066,-0.024,-0.022
-0.066,-0.024,-0.022
-0.066,-0.012,0.053
-0.066,-0.012,0.053
-0.049,-0.078,0.034
-0.052,-0.087,0.046
-0.052,-0.087,0.046
-0.043,-0.113,0.05
-0.043,-0.113,0.05
-0.031,-0.067,-0.011
-0.055,-0.091,-0.038
-0.055,-0.091,-0.038
-0.034,-0.074,-0.074
-0.034,-0.074,-0.074
-0.034,-0.078,-0.201
-0.041,-0.062,-0.201
-0.041,-0.062,-0.201
-0.266,-0.133,-0.301
-0.266,-0.133,-0.301
0.147,0.107,-0.093
0,0.073,-0.234
0,0.073,-0.234
-0.28,-0.061,0.073
-0.28,-0.061,0.073
0.085,0.019,-0.148
-0.06,-0.074,0.083
-0.06,-0.074,0.083
-0.015,-0.086,0.002
-0.015,-0.086,0.002
-0.07,-0.05,0.074
-0.077,-0.082,0.153
-0.077,-0.082,0.153
-0.072,0.008,0.048
-0.072,0.008,0.048
-0.029,-0.01,0.084
-0.034,-0.041,0.05
-0.034,-0.041,0.05
-0.009,-0.029,-0.033
-0.009,-0.029,-0.033
0.029,0.053,0.026
0.043,0.034,-0.038
0.043,0.034,-0.038
0.008,0.012,-0.067
0.011,-0.04,-0.043
0.011,-0.04,-0.043
0.042,-0.037,-0.036
0.047,-0.052,-0.072
0.05,-0.035,-0.053
0.064,-0.037,-0.094
0.025,-0.001,-0.089
0.046,-0.013,-0.092
0.046,-0.013,-0.092
0.02,-0.083,-0.018
-0.004,-0.145,0.019
-0.011,-0.143,0.065
-0.035,-0.149,0.096
-0.035,-0.149,0.096
-0.045,-0.108,0.071
-0.058,-0.08,0.05
-0.05,-0.061,0.004
-0.06,-0.025,0
-0.06,-0.025,0
-0.091,-0.044,-0.026
-0.098,-0.08,-0.1
-0.098,-0.063,-0.203
-0.095,-0.027,-0.172
-0.074,-0.058,-0.198
-0.086,0.032,-0.217
-0.077,0.023,-0.2
-0.103,-0.011,-0.162
-0.086,-0.011,-0.181
-0.086,-0.011,-0.181
-0.038,-0.094,-0.081
-0.055,-0.132,-0.047
-0.056,-0.142,-0.045
-0.051,-0.137,-0.011
-0.051,-0.137,-0.011
-0.027,-0.137,0.005
-0.006,-0.159,-0.058
-0.037,-0.149,-0.029
-0.018,-0.159,0.034
-0.018,-0.159,0.034
-0.044,-0.128,-0.074
-0.056,-0.116,-0.093
-0.044,-0.125,-0.072
-0.042,-0.075,-0.062
-0.042,-0.075,-0.062
-0.073,-0.047,-0.043
-0.077,-0.078,-0.052
-0.068,-0.078,-0.078
-0.106,-0.105,-0.1
-0.106,-0.105,-0.1
-0.062,-0.059,-0.059
-0.081,-0.009,-0.042
-0.081,-0.009,-0.042
-0.1,0.028,-0.023
-0.117,-0.014,-0.037
-0.102,-0.021,-0.088
-0.066,-0.014,-0.102
-0.045,-0.021,-0.056
-0.066,-0.057,-0.059
-0.064,0.014,-0.15
-0.085,0.014,-0.116
-0.042,0.004,-0.047
-0.066,-0.045,-0.104
-0.065,-0.057,-0.164
-0.034,-0.076,-0.145
-0.022,-0.073,-0.114
0.008,-0.064,-0.148
0.047,-0.059,-0.203
0.02,-0.045,-0.18
0.054,-0.049,-0.108
0.03,-0.033,-0.065
-0.003,-0.049,-0.053
0.013,-0.064,-0.027
-0.007,-0.088,0.084
0.001,-0.157,0.142
0.004,-0.152,0.123
0,-0.121,0.137
0.01,-0.095,0.139
-0.011,-0.026,0.206
-0.011,-0.026,0.206
0.01,-0.041,0.142
-0.056,-0.041,0.017
-0.023,-0.034,-0.017
-0.013,0.015,-0.072
-0.013,0.015,-0.072
-0.04,0.061,-0.092
-0.042,0.02,-0.07
-0.042,0.02,-0.07
-0.042,0.015,-0.132
-0.097,0.02,-0.154
-0.097,0.02,-0.154
-0.049,0.056,-0.077
-0.049,0.056,-0.077
-0.066,-0.002,-0.082
-0.066,-0.002,-0.082
-0.078,-0.035,-0.127
-0.047,-0.027,-0.067
-0.047,-0.027,-0.067
-0.018,-0.06,-0.012
-0.018,-0.06,-0.012
-0.049,-0.055,0.014
-0.044,-0.088,-0.004
-0.044,-0.088,-0.004
-0.056,-0.04,-0.059
-0.056,-0.04,-0.059
-0.046,-0.042,-0.002
-0.022,-0.083,0.038
-0.022,-0.083,0.038
-0.008,-0.097,-0.076
-0.008,-0.097,-0.076
-0.011,-0.002,-0.163
0.026,0.009,-0.189
0.026,0.009,-0.189
0.028,-0.053,-0.115
0.028,-0.053,-0.115
-0.014,-0.101,-0.095
0.001,-0.126,-0.145
0.001,-0.126,-0.145
0,-0.072,-0.027
0,-0.072,-0.027
-0.027,-0.038,-0.02
-0.013,-0.058,-0.02
-0.013,-0.058,-0.02
-0.057,-0.104,0.027
-0.062,-0.121,0.037
-0.062,-0.121,0.037
-0.062,-0.076,0.049
-0.062,-0.076,0.049
-0.088,-0.009,0.091
-0.141,-0.013,0.019
-0.141,-0.013,0.019
-0.114,-0.047,-0.073
-0.114,-0.047,-0.073
-0.132,0.077,-0.155
-0.094,0.13,-0.184
-0.094,0.13,-0.184
-0.06,0.126,-0.244
-0.06,0.126,-0.244
-0.119,0.126,0.016
-0.049,0.178,-0.016
-0.049,0.178,-0.016
-0.068,0.129,-0.067
-0.068,0.129,-0.067
-0.049,0.033,0.105
-0.039,-0.033,0.028
-0.018,-0.031,0.023
-0.005,-0.016,0.054
-0.005,-0.016,0.054
0.037,-0.024,0.136
-0.01,-0.064,0.114
0.001,-0.112,0.054
0.061,-0.122,0.035
0.051,-0.16,0.006
0.07,-0.113,-0.048
0.061,-0.06,-0.047
0.07,-0.065,-0.055
0.089,-0.054,-0.105
0.024,-0.066,-0.097
0.039,-0.129,-0.136
-0.009,-0.134,-0.124
-0.009,-0.134,-0.124
0.011,-0.053,-0.054
-0.012,-0.015,-0.004
-0.012,-0.015,-0.004
-0.003,-0.022,-0.006
-0.003,-0.022,-0.006
-0.034,-0.002,-0.081
-0.058,-0.014,-0.042
-0.08,-0.026,-0.021
-0.085,0.005,-0.011
-0.085,0.005,-0.011
-0.074,-0.027,0.014
-0.064,-0.02,-0.019
-0.055,0.016,-0.074
-0.067,0.033,-0.069
-0.067,0.033,-0.069
-0.071,0.021,-0.051
-0.075,-0.049,-0.039
-0.082,-0.063,0.02
-0.082,-0.065,0.039
-0.082,-0.065,0.039
-0.08,-0.057,0.019
-0.024,-0.045,-0.071
-0.029,-0.059,-0.071
-0.044,-0.032,-0.061
-0.044,-0.032,-0.061
-0.027,-0.035,-0.104
-0.036,-0.037,-0.159
-0.072,-0.068,-0.171
-0.041,-0.044,-0.166
-0.038,-0.032,-0.163
-0.007,-0.075,-0.187
-0.055,-0.052,-0.211
-0.053,-0.042,-0.148
-0.081,-0.09,-0.129
-0.093,-0.086,-0.101
-0.095,-0.055,-0.057
-0.052,-0.043,-0.065
-0.079,-0.06,-0.019
-0.052,-0.031,0.035
-0.014,-0.067,0.035
-0.017,-0.067,0.001
-0.005,-0.067,-0.041
-0.027,-0.029,-0.022
0.018,-0.025,0.001
0.015,-0.02,-0.034
-0.003,-0.014,-0.007
-0.003,-0.031,0.035
0.003,-0.079,0.063
0.017,-0.122,-0.039
0.024,-0.104,-0.034
0.036,-0.052,-0.028
0.036,-0.052,-0.028
-0.001,-0.054,-0.028
0.017,-0.047,0.007
0.032,-0.129,0.021
0.049,-0.148,-0.002
0.001,-0.122,-0.071
0.001,-0.122,-0.071
-0.022,-0.068,-0.102
-0.029,-0.065,-0.059
-0.029,-0.065,-0.059
-0.055,-0.081,0.007
-0.062,-0.116,0.04
-0.099,-0.059,0.023
-0.085,-0.037,-0.028
-0.085,-0.037,-0.028
-0.104,-0.01,-0.091
-0.104,-0.01,-0.091
-0.128,0.008,-0.153
-0.14,0.036,-0.122
-0.14,0.036,-0.122
-0.098,0.025,-0.127
-0.098,0.025,-0.127
-0.108,0.038,-0.117
-0.105,-0.033,-0.088
-0.105,-0.033,-0.088
-0.12,-0.089,-0.023
-0.12,-0.089,-0.023
-0.096,-0.134,0.05
-0.031,-0.139,0.016
-0.031,-0.139,0.016
-0.015,-0.122,-0.016
-0.015,-0.122,-0.016
-0.037,-0.208,-0.018
-0.03,-0.222,-0.062
-0.03,-0.222,-0.062
0.009,-0.153,-0.1
0.009,-0.153,-0.1
0.002,-0.1,-0.098
-0.004,-0.101,-0.057
-0.004,-0.101,-0.057
-0.076,-0.19,0.03
-0.076,-0.19,0.03
-0.083,-0.188,-0.034
-0.033,-0.126,-0.149
-0.033,-0.126,-0.149
-0.035,0.036,-0.12
-0.035,0.036,-0.12
-0.056,-0.023,-0.134
-0.119,-0.035,-0.18
-0.119,-0.035,-0.18
-0.092,-0.026,-0.103
-0.092,-0.026,-0.103
-0.087,-0.009,-0.156
-0.066,0.028,-0.134
-0.066,0.028,-0.134
-0.058,0,-0.064
-0.053,0.024,-0.06
-0.067,-0.012,0.004
-0.072,-0.038,0.045
-0.072,-0.038,0.045
-0.004,-0.078,0.114
-0.004,-0.078,0.114
0.005,-0.102,0.066
-0.028,-0.09,0.007
-0.028,-0.09,0.007
-0.039,-0.095,-0.004
-0.02,-0.081,0.007
-0.027,-0.095,0.024
-0.044,-0.059,0.041
-0.044,-0.059,0.041
-0.006,-0.119,-0.078
0.001,-0.102,-0.109
0.001,-0.1,-0.121
-0.022,-0.057,-0.123
-0.022,-0.057,-0.123
-0.085,-0.057,-0.096
-0.085,-0.057,-0.096
-0.09,-0.093,-0.082
-0.09,-0.093,-0.082
-0.073,-0.088,-0.043
-0.073,-0.088,-0.043
-0.114,-0.108,-0.007
-0.086,-0.124,0.035
-0.086,-0.124,0.035
-0.086,-0.119,0.018
-0.084,-0.091,-0.043
-0.108,-0.093,-0.108
-0.053,-0.05,-0.101
-0.096,-0.055,-0.146
-0.113,-0.05,-0.132
-0.104,-0.078,-0.094
-0.104,-0.078,-0.094
-0.113,-0.089,-0.128
-0.097,-0.063,-0.118
-0.097,-0.063,-0.118
-0.104,-0.094,-0.078
-0.104,-0.094,-0.078
-0.08,-0.097,0
-0.082,-0.133,0.038
-0.097,-0.169,0.043
-0.075,-0.195,0.106
-0.075,-0.195,0.106
-0.084,-0.209,0.041
-0.087,-0.192,0.012
-0.087,-0.192,0.012
-0.032,-0.19,0.05
-0.022,-0.152,-0.112
-0.058,-0.088,-0.205
-0.042,-0.057,-0.208
-0.042,-0.057,-0.208
-0.092,0,-0.246
-0.056,0.015,-0.27
-0.087,-0.058,-0.225
-0.099,-0.051,-0.189
-0.108,-0.054,-0.139
-0.101,-0.061,-0.113
-0.111,-0.047,-0.082
-0.108,-0.025,-0.082
-0.127,-0.04,-0.005
-0.125,-0.076,0.042
-0.136,-0.038,0.025
-0.114,-0.024,0.028
-0.126,0.014,0.004
-0.085,0.019,0.05
-0.09,0.067,0.016
-0.082,0.029,0.011
-0.063,-0.004,0.047
-0.06,-0.044,0.09
-0.077,-0.083,0.122
-0.108,-0.063,0.146
-0.062,-0.08,0.198
-0.043,-0.123,0.248
-0.038,-0.138,0.11
-0.035,-0.09,0.004
-0.052,-0.054,-0.157
-0.062,-0.013,-0.164
-0.074,0.046,-0.164
-0.095,0.031,-0.121
-0.036,-0.035,-0.209
-0.036,-0.035,-0.209
-0.075,-0.009,-0.209
-0.065,-0.001,-0.158
-0.065,-0.001,-0.158
-0.046,-0.035,-0.173
-0.094,-0.049,-0.101
-0.092,-0.049,-0.072
-0.116,-0.068,-0.075
-0.116,-0.068,-0.075
-0.116,-0.058,-0.01
-0.116,-0.058,-0.01
-0.114,-0.063,0.046
-0.11,-0.08,0.003
-0.11,-0.08,0.003
-0.139,-0.012,0.012
-0.139,-0.012,0.012
-0.149,-0.007,0
-0.154,0.011,0.04
-0.154,0.011,0.04
-0.15,-0.042,0.093
-0.15,-0.042,0.093
-0.178,-0.044,0.025
-0.133,-0.029,0.013
-0.133,-0.029,0.013
-0.133,-0.021,-0.067
-0.133,-0.021,-0.067
-0.075,-0.053,-0.081
-0.099,-0.041,-0.12
-0.099,-0.041,-0.12
-0.055,-0.053,-0.251
-0.055,-0.053,-0.251
-0.076,-0.093,-0.167
-0.079,-0.103,-0.115
-0.079,-0.103,-0.115
-0.125,-0.18,-0.06
-0.125,-0.18,-0.06
-0.089,-0.202,0.002
-0.08,-0.162,-0.028
-0.08,-0.162,-0.028
-0.105,-0.169,0.033
-0.105,-0.169,0.033
-0.15,-0.15,0.033
-0.131,-0.179,-0.011
-0.131,-0.179,-0.011
-0.158,-0.148,-0.021
-0.155,-0.131,-0.037
-0.182,-0.119,-0.026
-0.175,-0.086,-0.042
-0.175,-0.086,-0.042
-0.196,-0.057,-0.148
-0.169,-0.05,-0.133
-0.172,-0.047,-0.133
-0.172,-0.047,-0.133
-0.16,-0.023,-0.172
-0.109,-0.028,-0.22
-0.142,0.007,-0.234
-0.149,0.045,-0.213
-0.101,0.021,-0.162
-0.101,0.021,-0.162
-0.118,-0.014,-0.194
-0.098,-0.016,-0.167
-0.084,-0.043,-0.083
-0.081,-0.088,-0.072
-0.081,-0.088,-0.072
-0.085,-0.141,0.083
-0.085,-0.114,0.155
-0.047,-0.155,0.183
-0.032,-0.145,0.14
-0.032,-0.145,0.14
-0.044,-0.174,0.131
-0.044,-0.174,0.131
-0.044,-0.175,0.083
-0.071,-0.135,0.105
-0.071,-0.135,0.105
-0.087,-0.078,0.065
-0.087,-0.078,0.065
-0.116,-0.083,0.039
-0.138,-0.123,0.027
-0.102,-0.123,-0.029
-0.15,-0.051,-0.118
-0.121,-0.011,-0.163
-0.135,0.005,-0.196
-0.133,0.019,-0.22
-0.159,0.015,-0.263
-0.183,0,-0.266
-0.183,0,-0.266
-0.13,-0.029,-0.223
-0.14,-0.038,-0.139
-0.14,-0.038,-0.139
-0.152,-0.122,-0.02
-0.155,-0.167,0.017
-0.148,-0.174,0.108
-0.126,-0.193,0.115
-0.126,-0.193,0.115
-0.103,-0.133,0.022
-0.108,-0.124,-0.001
-0.144,-0.133,-0.02
-0.115,-0.174,-0.016
-0.115,-0.174,-0.016
-0.106,-0.176,-0.023
-0.11,-0.191,-0.063
-0.077,-0.188,-0.078
-0.101,-0.131,-0.104
-0.101,-0.131,-0.104
-0.105,-0.116,-0.2
-0.144,-0.098,-0.19
-0.136,-0.1,-0.157
-0.117,-0.088,-0.116
-0.124,-0.11,-0.102
-0.124,-0.11,-0.102
-0.151,-0.122,-0.147
-0.143,-0.091,-0.195
-0.155,-0.048,-0.162
-0.16,-0.046,-0.114
-0.192,-0.036,-0.032
-0.156,-0.084,0.01
-0.184,-0.158,0.067
-0.166,-0.127,0.103
-0.156,-0.139,0
-0.118,-0.096,-0.08
-0.128,-0.031,-0.14
-0.123,0.039,-0.099
-0.154,-0.026,-0.03
-0.166,-0.035,-0.001
-0.163,-0.116,0.048
-0.158,-0.171,0.022
-0.131,-0.164,0.024
-0.112,-0.128,0.012
-0.088,-0.123,0.014
-0.083,-0.049,-0.05
-0.076,-0.054,-0.052
-0.061,-0.042,0.014
-0.041,-0.092,-0.009
-0.027,-0.032,-0.102
-0.053,-0.008,-0.107
-0.045,-0.037,-0.093
-0.045,-0.046,-0.083
-0.06,-0.078,-0.067
-0.06,-0.078,-0.067
-0.046,-0.078,-0.117
-0.041,-0.071,-0.083
-0.058,-0.064,-0.04
-0.049,-0.065,-0.05
-0.049,-0.065,-0.05
-0.087,-0.099,0.028
-0.066,-0.103,0.006
-0.066,-0.103,0.006
-0.058,-0.082,0
-0.058,-0.082,0
-0.085,-0.108,-0.016
-0.09,-0.149,-0.088
-0.09,-0.149,-0.088
-0.105,-0.082,-0.048
-0.105,-0.082,-0.048
-0.11,-0.089,-0.074
-0.118,-0.115,-0.06
-0.118,-0.115,-0.06
-0.151,-0.177,0.035
-0.151,-0.177,0.035
-0.118,-0.174,-0.055
-0.159,-0.087,-0.084
-0.159,-0.087,-0.084
-0.147,0.011,-0.175
-0.147,0.011,-0.175
-0.159,-0.057,-0.068
-0.155,-0.143,-0.044
-0.155,-0.143,-0.044
-0.142,-0.15,-0.143
-0.142,-0.15,-0.143
-0.108,-0.034,-0.112
-0.142,-0.034,-0.148
-0.142,-0.034,-0.148
-0.142,-0.113,-0.011
-0.127,-0.161,0
-0.132,-0.166,-0.016
-0.132,-0.166,-0.016
-0.137,-0.171,-0.09
-0.11,-0.11,-0.027
-0.132,-0.103,-0.024
-0.11,-0.137,-0.012
-0.115,-0.147,0.027
-0.115,-0.147,0.027
-0.137,-0.145,-0.033
-0.129,-0.119,-0.096
-0.129,-0.095,-0.126
-0.163,-0.069,-0.148
-0.163,-0.069,-0.148
-0.18,-0.098,-0.054
-0.156,-0.158,-0.061
-0.165,-0.163,-0.051
-0.148,-0.133,-0.066
-0.148,-0.133,-0.066
-0.153,-0.081,-0.111
-0.153,-0.081,-0.111
-0.186,-0.042,-0.113
-0.16,-0.093,-0.069
-0.16,-0.093,-0.069
-0.181,-0.124,-0.012
-0.126,-0.103,-0.021
-0.171,-0.1,-0.098
-0.171,-0.1,-0.098
-0.123,-0.014,-0.102
-0.133,-0.076,-0.055
-0.133,-0.076,-0.055
-0.167,-0.114,0.047
-0.174,-0.163,0.087
-0.174,-0.163,0.087
-0.145,-0.077,-0.032
-0.099,-0.064,-0.061
-0.087,-0.055,-0.094
-0.082,-0.074,-0.09
-0.082,-0.074,-0.09
-0.089,-0.038,-0.068
-0.072,-0.1,-0.028
-0.077,-0.093,-0.028
-0.057,-0.083,-0.054
-0.067,-0.088,-0.028
-0.033,-0.086,0.041
-0.048,-0.094,0.062
-0.055,-0.154,0.101
-0.051,-0.135,0.139
-0.051,-0.135,0.139
-0.083,-0.125,0.172
-0.078,-0.094,0.121
-0.198,-0.123,0.389
-0.134,-0.192,0.394
-0.134,-0.192,0.394
-0.183,-0.216,-0.333
-0.319,-0.792,-1.796
-0.176,0.069,-0.637
0.294,0.84,-0.862
0.294,0.84,-0.862
-0.383,0.104,-0.301
-0.263,-0.095,0.023
-0.185,-0.18,-0.074
-0.321,-0.084,0.046
-0.252,-0.028,0.108
-0.166,-0.006,0.148
-0.217,-0.209,0.186
-0.215,-0.027,0.152
-0.215,-0.027,0.152
-0.206,-0.144,-0.064
