accx,accy,accz
-0.041,0.11,0.266
-0.11,0.18,0.266
-0.091,0.139,0.216
-0.091,0.139,0.216
-0.165,0.085,0.257
-0.354,0.185,0.001
-0.273,0.126,-0.17
-0.155,0.071,-0.206
0.094,-0.058,-0.164
0.266,-0.032,-0.202
0.479,-0.035,-0.036
0.61,-0.025,0.127
0.605,-0.008,0.208
0.515,0.039,0.252
0.411,0.109,0.192
0.262,0.119,0.077
0.089,0.107,0.048
-0.035,0.129,-0.032
-0.053,0.153,-0.014
0.065,0.14,0.052
0.205,0.078,0.013
0.283,0.052,0.115
0.291,0.048,0.237
0.245,0.057,0.213
0.21,0.047,0.135
0.099,0.036,-0.009
0.029,0.028,-0.054
0,0.036,-0.086
0.024,-0.015,-0.107
0.01,-0.051,-0.019
-0.059,-0.011,-0.06
-0.064,-0.034,-0.047
-0.073,0.001,0.024
-0.031,0.029,0.04
-0.025,-0.037,0.079
-0.031,0.004,0.097
-0.031,0.004,0.097
-0.107,-0.009,0.083
-0.142,-0.004,0.001
-0.17,0.002,-0.071
-0.17,0.002,-0.071
-0.136,0.016,-0.248
-0.083,0.007,-0.208
-0.03,0.004,-0.231
-0.016,0.01,-0.225
-0.011,0.027,-0.115
-0.006,-0.008,-0.024
0.018,0.007,-0.029
0.006,-0.006,0.026
-0.05,0.063,0.015
-0.05,0.063,0.015
-0.06,0.031,0.02
-0.076,0.039,0.056
-0.101,0.063,-0.062
-0.066,0.051,-0.08
-0.114,0.082,-0.116
-0.13,0.055,0.027
-0.078,0.053,0.16
-0.078,0.053,0.16
0.071,0.058,-0.034
-0.084,0.086,-0.175
-0.131,0.106,-0.21
-0.155,0.102,-0.347
-0.026,0.074,-0.195
0.054,0.024,-0.088
0.161,-0.01,0.005
0.162,0.021,-0.044
0.112,0.015,-0.032
0.037,0.072,0.047
0.015,0.076,0.01
0.015,0.076,0.01
-0.01,0.042,-0.125
-0.073,0.082,-0.139
-0.088,0.089,-0.183
-0.053,0.035,-0.13
-0.037,0.013,-0.039
-0.009,-0.002,-0.039
0.001,-0.031,0.052
0.057,-0.044,0.174
0.093,-0.063,0.223
0.165,-0.051,0.183
0.124,-0.067,0.172
-0.027,-0.047,0.164
-0.171,0.038,0.078
-0.213,0,0.014
-0.148,0.034,-0.092
-0.148,0.034,-0.092
-0.129,0.008,-0.126
-0.042,0.039,-0.081
-0.048,0.045,0.042
0.026,0.049,0.086
0.026,0.018,0.023
0.026,0.018,0.023
-0.057,0.055,-0.113
-0.057,0.055,-0.113
-0.042,0.033,-0.131
-0.055,0.006,-0.136
-0.055,0.006,-0.136
-0.083,-0.011,-0.146
-0.044,-0.002,-0.163
0.016,-0.015,-0.171
0.032,-0.04,-0.035
0.016,-0.042,0.029
0.016,-0.042,0.029
-0.063,-0.021,0.022
-0.073,0.013,-0.038
-0.056,0.005,-0.039
-0.068,-0.011,0.004
-0.108,-0.005,0
-0.135,0.005,0.054
-0.101,-0.007,0.11
-0.066,-0.031,0.086
-0.039,0.007,0.067
-0.039,0.007,0.067
-0.076,0.031,0
-0.11,0.041,-0.029
0.097,-0.045,0.038
0.225,-0.065,0.078
0.22,-0.032,0.025
0.174,0.012,-0.036
0.083,-0.012,-0.056
0.05,0.008,-0.089
0.092,0.023,-0.111
0.092,0.023,-0.111
0.118,-0.011,-0.167
0.078,0.018,-0.229
0.072,0.037,-0.213
0.151,-0.009,-0.054
0.151,-0.009,-0.054
0.226,-0.029,0.169
0.234,-0.046,0.087
0.092,-0.018,0.04
-0.038,0.003,0.005
-0.069,-0.01,-0.059
0.022,-0.049,0.031
0.057,-0.082,0.084
0.057,-0.082,0.084
0.012,-0.051,0.105
0.012,-0.051,0.105
0.018,-0.076,0.003
0.063,-0.073,-0.071
0.045,-0.076,-0.091
-0.006,-0.046,-0.13
-0.006,-0.046,-0.13
-0.029,-0.062,0.022
-0.028,-0.095,0.091
0.021,-0.071,0.096
0.067,-0.078,0.062
0.067,-0.078,0.062
0.008,-0.002,-0.071
0.055,0.002,0.003
0.07,-0.028,0.046
0.113,-0.023,0.111
0.113,-0.023,0.111
0.079,-0.028,0.044
0.048,0.004,-0.005
0.079,-0.019,-0.033
0.146,-0.021,0.026
0.189,-0.062,0.014
0.201,-0.064,0.004
0.167,-0.028,-0.057
0.095,-0.026,-0.069
0.093,-0.028,-0.035
0.093,-0.028,-0.035
0.129,-0.049,0.023
0.105,-0.025,0.009
0.006,-0.046,-0.023
-0.053,0.006,-0.038
-0.051,-0.051,0.021
-0.017,-0.082,0.098
0.068,-0.079,0.297
0.128,-0.082,0.28
0.08,-0.081,0.216
-0.01,-0.021,0.101
-0.072,0.019,-0.001
-0.066,0.007,-0.154
-0.004,-0.035,-0.206
0.043,-0.031,-0.245
0.088,-0.043,-0.219
0.107,-0.055,-0.135
0.133,-0.048,-0.018
0.143,-0.053,0.043
0.137,-0.056,0.045
0.094,-0.041,0.026
0.087,-0.032,-0.035
0.082,-0.051,-0.091
0.044,-0.042,-0.026
0.046,-0.047,-0.019
0.015,-0.078,0.064
0.016,-0.059,0.044
0.025,-0.067,-0.007
0.045,-0.067,0.028
0.088,-0.098,0.08
0.077,-0.076,0.075
0.067,-0.074,0.119
0.062,-0.086,0.131
0.079,-0.055,0.133
0.07,-0.112,0.099
0.054,-0.105,0.034
0.032,-0.087,-0.02
0.058,-0.078,-0.061
0.121,-0.07,0.02
0.14,-0.082,0.043
0.164,-0.063,0.091
0.09,-0.046,0.033
0.075,-0.039,0
0.032,-0.055,0.014
0.073,-0.036,0.05
0.14,-0.048,0.038
0.133,-0.036,0.079
0.106,-0.014,0.046
0.094,0.018,-0.07
0.058,0.022,-0.065
0.141,-0.001,0.015
0.168,-0.048,0.128
0.172,-0.051,0.183
0.12,-0.062,0.183
0.063,-0.014,0.073
0.063,-0.031,-0.041
0.101,-0.023,-0.084
0.17,-0.025,-0.144
0.162,-0.052,-0.199
0.143,-0.047,-0.18
0.09,-0.055,-0.142
0.104,-0.079,0.027
0.075,-0.106,0.08
0.075,-0.106,0.08
0.068,-0.103,0.066
0.037,-0.109,0.087
0.027,-0.126,0.14
0.044,-0.124,0.118
0.008,-0.131,0.104
0.018,-0.112,0.128
0.085,-0.08,0.056
0.081,-0.037,0.023
0.081,-0.037,0.023
0.074,-0.035,-0.073
0.074,-0.035,-0.073
0.091,-0.035,-0.022
0.192,-0.079,0.13
0.192,-0.079,0.13
0.163,0,0.082
0.163,0,0.082
0.168,-0.012,0.005
0.156,0,-0.116
0.156,0,-0.116
0.193,0,-0.127
0.193,0,-0.127
0.232,-0.033,-0.007
0.232,-0.033,-0.007
0.227,-0.012,0.076
0.136,-0.002,0.165
0.136,-0.002,0.165
0.141,-0.068,0.17
0.141,-0.068,0.17
0.108,-0.058,0.091
-0.021,-0.042,-0.023
-0.021,-0.042,-0.023
0.024,-0.051,-0.09
0.024,-0.051,-0.09
0.065,-0.075,-0.102
0.139,-0.125,-0.001
0.12,-0.102,0.069
0.108,-0.078,0.096
0.108,-0.078,0.096
0.117,-0.068,0.096
0.067,-0.061,0.094
0.053,-0.058,0.063
0.033,-0.102,-0.013
0.033,-0.102,-0.013
-0.009,-0.071,-0.032
0.033,-0.055,-0.01
0.107,-0.074,-0.017
0.117,-0.084,0.042
0.141,-0.096,0.099
0.12,-0.057,0.092
0.139,-0.031,0.037
0.115,-0.017,-0.001
0.072,0.009,0.015
0.072,0.009,0.015
0.062,0.006,-0.001
0.072,-0.019,0.001
0.077,-0.06,-0.013
0.103,-0.045,0.041
0.103,-0.045,0.041
0.138,-0.026,0.113
0.176,-0.079,0.094
0.145,-0.028,0.006
0.085,-0.025,-0.041
0.085,-0.025,-0.041
0.08,-0.051,-0.082
0.08,-0.07,-0.072
0.08,-0.073,-0.048
0.065,-0.044,-0.051
0.065,-0.044,-0.051
0.039,-0.096,0.149
0.041,-0.11,0.233
0.065,-0.1,0.163
-0.017,-0.079,0.087
-0.043,-0.069,-0.032
-0.017,-0.026,-0.102
0.09,-0.071,-0.102
0.157,-0.029,-0.071
0.129,0.001,-0.076
0.129,0.001,-0.076
0.071,0.024,-0.026
0.111,0.002,-0.067
0.138,-0.04,-0.024
0.162,0,-0.055
0.162,0,-0.055
0.159,-0.015,-0.058
0.164,-0.007,-0.022
0.143,-0.027,-0.01
0.135,-0.05,0.01
0.109,-0.019,-0.039
0.093,-0.043,-0.04
0.066,-0.038,-0.085
0.059,-0.038,-0.052
0.083,-0.06,0.141
0.11,-0.072,0.227
0.11,-0.11,0.237
0.079,-0.059,0.201
-0.008,-0.018,0.091
-0.015,-0.047,-0.035
-0.015,-0.047,-0.035
0.024,-0.046,-0.145
0.043,-0.111,-0.128
0.082,-0.122,-0.032
0.098,-0.118,0.058
0.098,-0.118,0.058
0.089,-0.089,0.208
0.056,-0.122,0.158
0.068,-0.113,0.089
0.059,-0.108,-0.109
0.063,-0.067,-0.104
0.066,-0.043,-0.126
0.107,-0.032,-0.092
0.071,-0.065,-0.009
0.071,-0.043,0.029
0.071,-0.043,0.029
0.038,-0.069,0.132
0.033,-0.104,0.151
0.113,-0.085,0.13
0.113,-0.08,0.123
0.093,-0.035,0.02
0.064,-0.016,-0.046
0.076,-0.016,-0.055
0.061,-0.016,-0.022
0.113,-0.049,0.049
0.121,-0.064,0.117
0.135,-0.059,0.126
0.118,-0.052,0.098
0.109,-0.025,0.014
0.077,-0.052,-0.102
0.086,-0.083,-0.121
0.096,-0.088,-0.14
0.098,-0.095,-0.14
0.095,-0.135,-0.114
0.08,-0.114,0
0.047,-0.112,0.05
0.006,-0.152,0.122
-0.065,-0.145,0.122
-0.084,-0.119,0.041
-0.041,-0.133,0.058
-0.035,-0.14,0.024
-0.042,-0.136,0.034
-0.023,-0.112,-0.01
-0.018,-0.117,0.022
0.003,-0.055,0.063
0.089,-0.108,0.139
0.104,-0.108,0.122
0.085,-0.067,0.094
0.034,-0.015,-0.025
0.022,-0.022,-0.121
0.077,-0.032,-0.126
0.137,-0.054,-0.114
0.185,-0.037,-0.091
0.159,-0.047,-0.029
0.18,-0.018,-0.005
0.146,-0.02,0.006
0.146,-0.02,0.006
0.175,-0.071,0.077
0.151,-0.111,0.029
0.151,-0.111,0.029
-0.006,-0.075,-0.078
-0.006,-0.075,-0.078
0.014,-0.113,0.058
0.077,-0.132,0.123
0.077,-0.132,0.123
0.027,-0.119,0.154
0.017,-0.114,0.166
0.01,-0.133,0.125
0.005,-0.15,0.078
0.005,-0.15,0.078
-0.011,-0.107,0
-0.011,-0.107,0
-0.033,-0.097,-0.05
0.069,-0.114,0.028
0.069,-0.114,0.028
0.086,-0.113,0.112
0.066,-0.121,0.11
0.042,-0.073,0.028
-0.026,-0.076,-0.03
-0.026,-0.076,-0.03
0.114,-0.097,0.045
0.114,-0.097,0.045
0.123,-0.141,0.124
0.123,-0.141,0.124
0.037,-0.043,0.048
0.076,-0.033,-0.064
0.076,-0.033,-0.064
0.109,-0.028,-0.107
0.109,-0.028,-0.107
0.128,-0.035,0.055
0.08,-0.018,0.165
0.08,-0.018,0.165
0.099,-0.052,0.165
0.114,-0.063,-0.026
0.114,-0.063,-0.026
0.087,-0.063,-0.144
0.096,-0.054,-0.144
0.156,-0.069,0.02
0.107,-0.098,0.044
0.033,-0.071,0.053
-0.014,-0.083,0.034
-0.047,-0.1,0.003
-0.04,-0.086,0.024
-0.04,-0.086,0.024
0.012,-0.114,0.132
0.036,-0.095,0.039
0.02,-0.072,0.008
0.017,-0.046,-0.01
0.007,-0.084,-0.041
0.036,-0.072,-0.082
0.041,-0.062,-0.103
0.046,-0.06,-0.074
0.079,-0.041,-0.029
0.079,-0.041,-0.029
0.122,-0.022,-0.017
0.103,-0.005,-0.043
0.101,-0.015,-0.041
0.101,-0.015,-0.041
0.103,-0.008,-0.069
0.11,-0.034,-0.062
0.11,-0.034,-0.062
0.075,-0.02,-0.065
0.082,-0.024,0.013
0.098,-0.053,0.03
0.082,-0.053,0.054
0.072,-0.034,-0.002
0.061,-0.055,0.004
0.09,-0.072,0.078
0.1,-0.055,0.109
0.071,-0.088,0.143
0.013,-0.026,0.116
0.013,-0.026,0.116
0.025,-0.071,-0.01
0.066,-0.05,0.01
0.157,-0.09,0.022
0.159,-0.109,0.056
0.1,-0.063,0.046
0.043,-0.037,-0.025
-0.021,-0.051,-0.054
0.045,-0.08,-0.045
0.057,-0.077,-0.104
0.067,-0.077,-0.052
0.06,-0.049,-0.013
0.096,-0.049,0.017
0.108,-0.068,0.137
0.091,-0.109,0.18
0.03,-0.087,0.13
0.008,-0.073,0.049
0.006,-0.071,-0.079
0.047,-0.033,-0.125
0.124,-0.036,-0.024
0.188,-0.024,0.104
0.189,-0.018,0.193
0.131,-0.01,0.208
-0.002,0.015,0.157
-0.026,0.012,0.057
-0.026,0.012,0.057
0.07,-0.033,-0.105
0.142,-0.054,-0.119
0.161,-0.047,-0.071
0.179,-0.066,-0.045
0.162,-0.064,0.012
0.167,-0.106,0.038
0.102,-0.113,0.131
-0.002,-0.07,-0.011
0.011,-0.074,-0.047
0.028,-0.091,-0.087
0.066,-0.084,-0.092
0.049,-0.072,0.005
0.03,-0.089,0.041
0.016,-0.055,0.085
0.016,-0.055,0.085
0.035,-0.083,0.142
0.043,-0.094,0.099
0.062,-0.092,0.106
0.069,-0.037,-0.005
0.083,-0.011,-0.101
0.066,-0.023,-0.116
0.075,-0.023,-0.084
0.099,-0.033,-0.005
0.145,-0.073,0.106
0.145,-0.073,0.106
0.046,-0.018,0.015
0.108,-0.02,-0.07
0.165,0.003,-0.135
0.182,-0.013,-0.106
0.201,-0.007,-0.053
0.163,-0.007,-0.048
0.129,0.014,0.023
0.098,0.004,0.023
0.072,-0.024,-0.005
0.072,-0.024,-0.005
0.092,-0.038,0.061
0.082,-0.044,0.054
0.075,-0.056,0.108
0.049,-0.094,0.099
-0.003,-0.061,0.027
-0.019,-0.057,-0.004
0.007,-0.097,-0.061
0.035,-0.102,-0.076
0.074,-0.096,-0.081
0.066,-0.096,-0.059
0.086,-0.092,0.048
0.031,-0.094,0.088
0.026,-0.072,0.093
0,-0.06,0.103
0.023,-0.069,0.038
0.031,-0.093,0.014
0.045,-0.075,-0.014
0.031,-0.059,-0.009
0.035,-0.061,0.028
0.088,-0.054,0.048
0.055,-0.063,0.067
0.098,-0.066,0.088
0.098,-0.066,0.088
0.113,-0.05,0.042
0.089,-0.007,-0.012
0.087,0.008,-0.031
0.101,0.029,-0.029
0.101,0.029,-0.029
0.149,0.019,0.025
0.137,-0.023,0.042
0.146,-0.02,0.049
0.117,-0.039,0.023
0.126,-0.048,-0.026
0.126,-0.048,-0.026
0.104,-0.079,-0.067
0.113,-0.078,-0.057
0.113,-0.09,-0.059
0.05,-0.118,-0.004
0.05,-0.118,-0.004
-0.014,-0.108,0.041
-0.011,-0.133,0.038
-0.011,-0.133,0.038
0.005,-0.135,0.043
-0.023,-0.133,0.062
-0.049,-0.127,0.091
-0.036,-0.13,0.11
-0.036,-0.13,0.11
0.028,-0.046,0.184
0.05,-0.042,0.121
0.069,-0.009,0.047
0.088,-0.004,-0.034
0.088,-0.004,-0.034
0.104,0,-0.168
0.104,0,-0.168
0.145,-0.006,-0.189
0.204,-0.008,-0.163
0.219,-0.015,-0.127
0.235,-0.04,-0.048
0.197,-0.035,-0.014
0.178,-0.033,0
0.145,-0.03,-0.04
0.125,-0.016,-0.054
0.068,-0.035,-0.023
0.054,-0.037,0.021
0.039,-0.052,0.105
0.051,-0.09,0.12
0.061,-0.054,0.182
0.069,-0.083,0.189
0.067,-0.076,0.165
0.055,-0.076,0.105
-0.009,-0.092,0.054
-0.009,-0.099,0
-0.016,-0.138,0.03
0.031,-0.138,0.023
0.026,-0.135,-0.01
0.053,-0.123,0.028
0.065,-0.119,0.018
0.062,-0.121,0.007
0.021,-0.137,-0.019
0.021,-0.103,-0.071
-0.019,-0.11,-0.044
-0.041,-0.124,-0.049
-0.05,-0.129,0.003
-0.031,-0.103,0.003
-0.017,-0.125,0.029
0.033,-0.116,0.099
0.052,-0.102,0.106
0.1,-0.08,0.058
0.076,-0.052,0.037
0.037,-0.047,0.039
0.018,-0.038,0.082
0.047,-0.052,0.084
0.078,-0.048,0.094
0.11,-0.067,0.108
0.153,-0.048,0.11
0.144,-0.084,0.069
0.163,-0.081,0.081
0.136,-0.067,-0.002
0.117,-0.076,0.033
0.132,-0.139,-0.047
0.103,-0.095,-0.043
0.036,-0.109,-0.052
0.033,-0.104,0.028
0.038,-0.109,0.095
0.036,-0.133,0.15
-0.014,-0.13,0.176
-0.035,-0.138,0.116
-0.049,-0.133,0.109
-0.052,-0.131,0.04
-0.011,-0.127,-0.014
-0.025,-0.117,-0.029
0.036,-0.117,-0.053
0.075,-0.113,0.028
0.113,-0.113,0.025
0.094,-0.089,0.047
0.056,-0.082,-0.012
0.032,-0.053,-0.077
0.039,-0.033,-0.132
0.085,-0.05,-0.115
0.121,-0.048,-0.112
0.121,-0.048,-0.112
0.142,-0.033,-0.007
0.137,-0.044,0.088
0.144,-0.063,0.148
0.101,-0.071,0.136
0.064,-0.049,0.141
0.047,-0.066,0.09
0.047,-0.09,0.002
0.03,-0.059,-0.033
0.056,-0.067,-0.076
0.056,-0.067,-0.076
0.056,-0.106,-0.047
0.065,-0.11,-0.016
0.034,-0.113,0.012
0.001,-0.139,0.096
-0.013,-0.137,0.125
-0.015,-0.142,0.089
0.001,-0.137,0.024
0.017,-0.108,-0.01
0.06,-0.113,-0.054
0.029,-0.127,-0.034
0.012,-0.106,-0.01
0.013,-0.106,0.041
-0.008,-0.103,0.084
0.01,-0.122,0.153
-0.024,-0.127,0.177
0.004,-0.079,0.067
0.012,-0.087,0.045
0.074,-0.085,-0.021
0.138,-0.056,-0.055
0.148,-0.056,-0.048
0.122,0.01,-0.029
0.107,-0.006,-0.062
0.122,-0.008,-0.01
0.119,-0.03,0.085
0.148,-0.033,0.095
0.107,-0.035,0.114
0.079,-0.019,0.03
0.064,-0.021,-0.062
0.122,-0.021,-0.077
0.122,-0.021,-0.077
0.167,-0.075,-0.079
0.164,-0.075,-0.068
0.082,-0.096,0.044
0.042,-0.105,0.089
-0.007,-0.119,0.123
-0.005,-0.136,0.132
-0.036,-0.114,0.077
-0.034,-0.097,0.034
-0.01,-0.099,-0.025
0.004,-0.092,-0.024
-0.01,-0.102,-0.017
-0.003,-0.095,0.049
-0.003,-0.095,0.049
0.018,-0.091,0.121
0.025,-0.05,0.006
0.025,-0.05,0.006
0.053,-0.033,-0.179
0.085,-0.028,-0.22
0.099,-0.031,-0.155
0.111,-0.041,-0.037
0.111,-0.041,-0.037
0.164,-0.019,0.036
0.168,-0.002,0.014
0.142,-0.031,0.014
0.14,-0.019,-0.018
0.14,-0.019,-0.018
0.125,-0.018,-0.002
0.125,-0.03,0.067
0.125,-0.03,0.067
0.121,-0.03,0.081
0.121,-0.03,0.081
0.097,-0.054,0.093
0.064,-0.038,0.052
0.064,-0.038,0.052
0.031,-0.069,0.037
0.031,-0.069,0.037
0.052,-0.074,0.016
0.031,-0.113,-0.024
0.031,-0.113,-0.024
0.036,-0.108,-0.012
0.036,-0.108,-0.012
-0.018,-0.118,-0.031
0.048,-0.11,0.044
0.048,-0.11,0.044
0.041,-0.113,0.03
0.043,-0.086,-0.029
0.033,-0.065,-0.036
0.033,-0.065,-0.036
0.021,-0.06,-0.003
0.055,-0.059,0.078
0.059,-0.042,0.076
0.079,-0.059,0.035
0.122,-0.028,0.045
0.122,-0.028,0.045
0.117,-0.014,0.141
0.09,0.014,0.124
0.04,0,0.122
0.04,0.016,0.067
0.074,-0.026,0.014
0.121,-0.023,-0.061
0.15,-0.028,-0.081
0.195,-0.052,-0.081
0.166,-0.059,-0.025
0.151,-0.063,-0.011
0.12,-0.044,0.048
0.074,-0.079,0.024
0.023,-0.101,0.007
-0.019,-0.086,-0.061
-0.016,-0.081,-0.092
0.045,-0.067,-0.092
0.069,-0.076,-0.023
0.081,-0.11,0.041
0.059,-0.088,0.161
0.007,-0.11,0.156
-0.069,-0.1,0.178
-0.071,-0.071,0.154
-0.097,-0.089,0.051
-0.049,-0.074,-0.039
0.027,-0.058,-0.116
0.095,-0.056,-0.13
0.14,-0.035,-0.092
0.152,-0.035,-0.04
0.152,-0.035,-0.04
0.09,-0.023,0.002
0.145,-0.033,-0.06
0.129,-0.021,-0.038
0.081,-0.009,-0.079
0.131,-0.029,-0.062
0.148,-0.017,-0.014
0.143,-0.02,0.028
0.167,-0.027,0.057
0.126,-0.01,0.078
0.088,-0.01,0.04
0.069,-0.053,0.061
0.077,-0.051,0.009
0.072,-0.044,0
0.089,-0.07,0.001
0.022,-0.085,0.02
0.051,-0.07,0.027
0.02,-0.106,0.044
0.044,-0.097,0.029
0.042,-0.085,-0.025
0.07,-0.094,-0.03
0.046,-0.116,-0.027
0.075,-0.109,-0.015
0.039,-0.094,0.013
0.022,-0.073,0.025
0.034,-0.07,0.039
0.025,-0.08,0.056
0.049,-0.104,0.046
0.066,-0.082,0.07
0.016,-0.078,0.061
0.004,-0.073,0.032
0.057,-0.061,0.003
0.04,-0.071,0.006
0.081,-0.033,-0.053
0.098,-0.024,-0.024
0.117,-0.009,0.027
0.119,-0.014,0.116
0.117,-0.026,0.15
0.083,-0.033,0.114
0.091,-0.035,0.035
0.076,-0.011,-0.11
0.114,0,-0.132
0.171,-0.038,-0.089
0.192,-0.081,-0.027
0.173,-0.059,0.044
0.118,-0.083,0.066
0.06,-0.085,0.009
0.012,-0.058,-0.021
0.012,-0.074,-0.09
0.034,-0.103,-0.083
0.036,-0.089,-0.033
0.043,-0.101,0.031
0.053,-0.077,0.103
0.022,-0.113,0.148
0.022,-0.096,0.189
-0.023,-0.1,0.112
-0.013,-0.105,0.103
-0.028,-0.091,-0.014
-0.037,-0.079,-0.059
-0.033,-0.086,-0.076
0.05,-0.055,-0.071
0.076,-0.048,-0.08
0.131,-0.06,-0.075
0.143,-0.021,-0.037
0.174,-0.03,-0.042
0.171,-0.025,-0.07
0.15,-0.056,-0.048
0.164,-0.028,-0.027
0.112,-0.03,-0.015
0.066,-0.013,0.011
0.07,-0.013,0.014
0.099,-0.042,0.054
0.097,-0.025,0.071
0.106,-0.035,0.098
0.111,-0.068,0.071
0.054,-0.085,0.095
0.057,-0.095,0.042
0.018,-0.071,0.014
0.04,-0.086,-0.034
0.04,-0.086,-0.034
0.052,-0.098,-0.02
0.052,-0.098,-0.02
0.045,-0.117,0.046
0.052,-0.112,0.056
0.052,-0.112,0.056
0.011,-0.12,-0.006
0.011,-0.12,-0.006
0.014,-0.1,-0.014
0.002,-0.139,-0.011
-0.032,-0.12,0.04
0.017,-0.1,0.093
0.017,-0.1,0.093
0.003,-0.115,0.129
0,-0.105,0.083
0,-0.105,0.083
0.011,-0.07,0.04
0.054,-0.058,0.083
0.054,-0.058,0.083
0.092,-0.032,0.067
0.097,-0.029,0.043
0.097,-0.029,0.043
0.174,-0.044,0.045
0.174,-0.044,0.045
0.164,-0.051,0.007
0.159,-0.061,-0.055
0.11,-0.106,-0.071
0.096,-0.084,-0.078
0.096,-0.084,-0.078
0.066,-0.119,-0.023
0.066,-0.119,-0.023
0.057,-0.109,0.059
0.021,-0.116,0.095
0.021,-0.116,0.095
0,-0.097,0.093
-0.048,-0.119,0.04
-0.076,-0.104,0.064
-0.076,-0.104,0.064
-0.072,-0.107,0.088
-0.002,-0.092,0.083
-0.002,-0.092,0.083
0.03,-0.064,0.052
0.047,-0.076,-0.041
0.075,-0.073,-0.117
0.07,-0.035,-0.144
0.077,-0.05,-0.151
0.099,-0.026,-0.116
0.075,-0.033,-0.034
0.116,-0.055,0.02
0.14,-0.062,0.051
0.097,-0.033,0.017
0.101,-0.019,-0.073
0.106,0.002,-0.069
0.106,0.002,-0.069
0.142,-0.012,-0.05
0.123,-0.017,0.007
0.12,-0.024,0.04
0.07,-0.026,0.088
0.023,-0.052,0.105
0.025,-0.067,0.093
0.019,-0.067,0.057
0.052,-0.076,0.01
0.054,-0.081,-0.023
0.057,-0.071,-0.027
0.054,-0.059,-0.032
0.047,-0.071,-0.027
0.026,-0.074,0.006
0.014,-0.093,-0.017
0.016,-0.069,-0.005
0.021,-0.066,-0.017
0.043,-0.064,0.022
0.057,-0.071,0.008
0.043,-0.067,0.046
0.067,-0.083,0.049
0.015,-0.071,0.006
0.02,-0.071,0.003
0.034,-0.071,0.006
0.032,-0.067,0.049
0.052,-0.078,0.054
0.095,-0.054,0.112
0.086,-0.021,0.069
0.067,-0.013,0.047
0.091,-0.011,0.004
0.062,0.005,0.021
0.067,0.053,-0.066
0.079,0.017,-0.001
0.136,0.017,0.015
0.141,-0.013,0.065
0.157,-0.016,0.046
0.133,-0.025,0.034
0.114,-0.006,-0.006
0.118,-0.035,-0.042
0.103,-0.05,-0.073
0.101,-0.055,-0.071
0.076,-0.045,-0.069
0.062,-0.076,-0.021
0.083,-0.069,-0.026
0.059,-0.09,0.017
0.05,-0.059,0.007
0.026,-0.081,-0.004
0.028,-0.078,0.008
-0.009,-0.055,0.072
-0.007,-0.062,0.068
-0.026,-0.069,0.087
0.014,-0.076,0.054
-0.012,-0.038,0.03
0.023,-0.062,0
0.09,-0.023,-0.024
0.114,-0.019,-0.072
0.101,-0.029,-0.084
0.096,0.011,-0.089
0.101,-0.033,-0.062
0.087,0.016,-0.034
0.096,-0.048,0.01
0.12,-0.026,0.015
0.139,-0.014,0.008
0.163,-0.024,-0.006
0.142,-0.005,-0.023
0.161,0.013,-0.052
0.156,-0.002,-0.03
0.111,-0.012,-0.023
0.087,0.018,0.024
0.068,-0.002,0.052
0.072,-0.045,0.091
0.073,-0.049,0.084
0.123,-0.054,0.043
0.123,-0.054,0.043
0.104,-0.039,0.019
0.083,-0.063,0.038
0.092,-0.034,0.019
0.107,-0.051,-0.002
0.107,-0.044,0.004
0.109,0.008,0.04
0.09,-0.001,0.016
0.121,-0.02,0.071
0.119,-0.023,0.078
0.119,-0.032,0.068
0.128,-0.051,0.089
0.079,-0.047,0.041
0.086,-0.042,-0.003
0.077,-0.069,0.01
0.048,-0.033,0.017
0.058,-0.072,0.036
0.073,-0.055,0.062
0.061,-0.062,0.038
0.069,-0.056,0.062
0.067,-0.041,0.012
0.07,-0.041,-0.03
0.075,-0.037,-0.008
0.097,-0.025,-0.061
0.133,-0.018,-0.046
0.133,-0.018,-0.046
0.176,0.028,-0.015
0.121,0.025,0.008
0.096,0.037,-0.036
0.074,0.035,-0.063
0.062,0.03,-0.036
0.086,0.016,-0.022
0.086,0.016,-0.022
0.14,-0.021,0.044
0.144,-0.023,0.069
0.144,-0.023,0.069
0.107,0,-0.009
0.107,0,-0.009
0.136,0.013,-0.037
0.128,0.006,-0.09
0.13,0.009,-0.071
0.159,-0.001,-0.01
0.159,-0.001,-0.01
0.161,-0.035,0.044
0.106,-0.051,0.096
0.106,-0.051,0.096
0.07,-0.058,0.161
0.07,-0.058,0.161
0.07,-0.034,0.128
0.111,0.041,0.099
0.111,0.041,0.099
0.177,0.108,0.027
0.177,0.108,0.027
0.201,0.099,0.005
0.251,0.133,0
0.251,0.133,0
0.304,0.136,-0.028
0.244,0.155,0.038
0.244,0.155,0.038
0.222,0.143,0.048
0.222,0.143,0.048
0.225,0.156,0.098
0.28,0.194,0.105
0.309,0.187,0.096
0.328,0.196,0.093
0.378,0.225,0.036
0.404,0.232,0
0.431,0.22,-0.014
0.4,0.256,-0.023
0.431,0.261,0.002
0.416,0.278,0.026
0.409,0.29,0.068
0.409,0.29,0.068
0.341,0.312,0.164
0.391,0.367,0.171
0.429,0.364,0.238
0.513,0.369,0.274
0.284,0.254,0.154
0.321,0.255,0.126
0.298,0.285,0.136
0.263,0.227,0.143
0.147,0.249,0.223
-0.003,0.21,0.247
-0.08,0.248,0.25
-0.117,0.23,0.121
-0.077,0.205,-0.032
0.026,0.24,-0.119
0.178,0.224,-0.181
0.338,0.201,-0.181
0.454,0.2,-0.222
0.454,0.2,-0.222
0.31,0.2,-0.035
0.162,0.271,0.088
0.046,0.271,0.18
0.029,0.248,0.291
0.043,0.244,0.356
0.121,0.245,0.345
0.132,0.202,0.255
0.117,0.24,0.103
0.078,0.274,-0.087
0.099,0.293,-0.233
0.144,0.278,-0.237
0.205,0.297,-0.232
0.296,0.23,-0.071
0.29,0.237,0.094
0.258,0.251,0.214
0.25,0.246,0.3
0.279,0.182,0.363
0.507,0.032,0.339
0.843,-0.069,0.174
0.806,0.11,0.027
0.759,0.18,-0.027
0.953,0.016,-0.135
1.196,-0.242,-0.239
1.787,-0.865,-0.542
1.77,-1.014,-0.96
1.264,-0.292,-1.236
1.213,-0.152,-1.518
1.619,-0.795,-1.751
1.485,-0.876,-1.849
0.953,-0.488,-1.77
0.465,-0.344,-1.458
0.029,-0.351,-1.03
-0.323,-0.238,-0.58
-0.476,-0.088,-0.305
-0.511,-0.063,-0.145
-0.523,0.006,-0.094
-0.519,0.15,-0.216
-0.49,0.298,-0.335
-0.493,0.401,-0.281
-0.521,0.464,-0.161
-0.586,0.544,-0.01
-0.679,0.646,0.141
-0.719,0.731,0.379
-0.712,0.75,0.579
-0.668,0.716,0.635
-0.669,0.812,0.769
-0.697,0.847,0.572
-0.724,0.845,0.421
-0.682,0.856,0.188
-0.591,0.849,-0.01
-0.593,0.787,0
-0.539,0.642,0.126
-0.447,0.551,0.168
-0.468,0.491,0.218
-0.392,0.498,0.172
-0.259,0.584,-0.032
-0.377,0.648,-0.196
-0.649,0.491,0.285
-0.57,-0.494,0.802
-0.332,-0.676,0.443
-0.22,-0.21,-0.734
-0.061,-0.192,-1.624
0.17,-0.308,-2.156
0.378,-0.255,-2.601
0.557,-0.181,-2.763
0.634,-0.133,-2.582
0.697,-0.167,-2.32
0.633,-0.159,-1.885
0.52,-0.119,-1.516
0.427,-0.09,-1.32
0.331,-0.077,-1.082
0.267,-0.076,-0.947
0.224,-0.039,-0.827
0.177,-0.001,-0.716
0.177,-0.03,-0.625
0.231,-0.025,-0.538
0.363,0.005,-0.399
0.442,-0.023,-0.296
0.46,-0.022,-0.19
0.416,0.002,-0.129
0.332,-0.023,0.021
0.243,-0.018,0.212
0.243,-0.018,0.212
0.093,-0.055,0.712
-0.016,-0.214,1.064
-0.016,-0.214,1.064
0,-0.309,1.311
0,-0.309,1.311
0.226,-0.389,1.3
0.284,-0.396,1.247
0.4,-0.394,0.886
0.328,-0.412,0.615
0.328,-0.412,0.615
0.142,-0.382,0.569
-0.18,-0.346,0.788
-0.18,-0.346,0.788
-0.243,-0.273,0.827
-0.243,-0.273,0.827
-0.171,-0.223,0.655
0.044,-0.111,0.116
0.044,-0.111,0.116
0.141,0.027,-0.435
0.141,0.027,-0.435
0.103,0.07,-0.59
-0.008,0.145,-0.769
-0.008,0.145,-0.769
-0.05,0.261,-0.586
-0.05,0.261,-0.586
-0.034,0.24,-0.429
0.023,0.262,-0.069
0.023,0.262,-0.069
0.119,0.237,-0.003
0.119,0.237,-0.003
0.167,0.172,-0.002
0.197,0.067,0.043
0.197,0.067,0.043
0.237,-0.115,0.096
0.237,-0.115,0.096
0.149,-0.261,0.145
0.046,-0.341,0.085
-0.03,-0.359,0.136
-0.062,-0.491,0.049
-0.085,-0.516,-0.022
-0.053,-0.522,-0.103
-0.053,-0.522,-0.103
-0.019,-0.569,-0.141
0.078,-0.517,-0.056
0.162,-0.447,0.26
0.162,-0.447,0.26
0.643,-0.265,1.451
0.446,-0.015,1.623
0.284,-0.063,1.739
0.31,-0.172,1.553
0.133,-0.111,1.231
-0.045,-0.037,0.673
0.009,-0.097,0.135
0.042,-0.229,-0.332
0.011,-0.238,-0.691
-0.072,-0.277,-0.805
-0.254,-0.368,-0.866
-0.463,-0.539,-0.846
-0.536,-0.61,-0.851
-0.699,-0.587,-0.917
-0.73,-0.644,-0.989
-0.618,-0.651,-0.78
-0.58,-0.636,-0.518
-0.538,-0.595,-0.167
-0.439,-0.645,0.1
-0.338,-0.572,0.172
-0.166,-0.486,0.338
0.071,-0.346,0.509
0.333,-0.23,0.696
0.488,-0.094,0.854
0.598,-0.027,1.012
0.671,0.047,1.112
0.715,0.019,1.178
0.693,0.001,1.254
0.772,0.068,0.784
0.767,0.01,0.285
0.709,-0.06,-0.184
0.795,-0.086,-0.645
0.796,-0.099,-0.933
0.866,-0.206,-0.993
0.824,-0.264,-0.869
0.462,-0.395,-0.946
-0.103,-0.533,-0.61
-0.291,-0.677,-0.387
-0.276,-0.622,-0.254
-0.297,-0.622,-0.266
-0.503,-0.653,-0.245
-0.754,-0.673,-0.206
-0.966,-0.65,-0.21
-1.211,-0.652,-0.023
-1.228,-0.6,0.181
-1.113,-0.525,0.27
-0.859,-0.392,0.059
-0.796,-0.449,-0.236
-0.769,-0.368,-0.402
-0.592,-0.389,-0.669
-0.523,-0.276,-0.859
-0.375,-0.134,-1.012
-0.452,-0.184,-1.459
-0.433,-0.053,-1.371
-0.378,0.029,-1.292
-0.438,0.066,-1.269
-0.451,0.153,-1.11
-0.357,0.217,-1.013
-0.173,0.288,-0.995
-0.013,0.326,-0.936
0.059,0.361,-0.693
0.01,0.324,-0.347
0.134,0.377,-0.106
0.246,0.33,0.032
0.265,0.29,0.16
0.238,0.217,0.203
0.194,0.142,0.246
0.255,0.065,0.398
0.325,-0.053,0.601
0.383,-0.165,0.636
0.439,-0.21,0.64
0.404,-0.327,0.602
0.451,-0.386,0.559
0.429,-0.543,0.554
0.408,-0.564,0.59
0.402,-0.591,0.545
0.393,-0.596,0.513
0.338,-0.516,0.536
0.35,-0.607,0.467
0.441,-0.559,0.309
0.441,-0.559,0.309
0.435,-0.365,0.075
0.435,-0.365,0.075
0.243,-0.31,-0.165
0.12,-0.349,-0.253
0.072,-0.331,-0.275
0.011,-0.343,-0.258
-0.015,-0.323,-0.215
-0.077,-0.311,-0.118
-0.045,-0.315,-0.107
-0.006,-0.326,-0.095
0.042,-0.29,-0.059
0.057,-0.24,-0.069
0.094,-0.224,-0.124
0.063,-0.239,-0.091
0.06,-0.246,-0.027
0.039,-0.274,0.026
0.08,-0.256,0.121
0.063,-0.28,0.165
0.036,-0.27,0.17
0.04,-0.228,0.069
0.028,-0.226,-0.009
0.005,-0.23,-0.038
0.023,-0.229,-0.055
0.023,-0.229,-0.055
0.153,-0.183,-0.012
0.168,-0.139,-0.017
0.114,-0.131,-0.042
0.138,-0.139,0
0.138,-0.139,0
0.085,-0.158,0.118
0.068,-0.144,0.197
0.068,-0.144,0.197
0.082,-0.146,0.236
0.082,-0.146,0.236
0.036,-0.185,0.207
-0.056,-0.225,0.269
-0.056,-0.225,0.269
-0.092,-0.208,0.244
-0.092,-0.208,0.244
-0.101,-0.2,0.131
-0.105,-0.152,0.032
-0.105,-0.152,0.032
-0.106,-0.18,-0.103
-0.106,-0.18,-0.103
-0.092,-0.106,-0.142
-0.104,-0.194,-0.139
-0.104,-0.194,-0.139
-0.045,-0.201,-0.312
-0.045,-0.201,-0.312
0,-0.191,-0.484
-0.133,-0.008,-0.286
-0.133,-0.008,-0.286
-0.052,-0.068,0.082
-0.052,-0.068,0.082
-0.121,0.015,0.179
-0.154,-0.111,0.13
-0.154,-0.111,0.13
0.102,-0.403,-0.488
0.102,-0.403,-0.488
-0.259,-0.049,-0.339
-0.2,0.041,-0.036
-0.079,-0.103,0.141
0.014,-0.168,0.161
-0.076,-0.231,0.187
-0.133,-0.254,0.27
-0.12,-0.21,0.296
-0.054,-0.231,0.219
-0.045,-0.301,0.18
-0.045,-0.301,0.18
-0.043,-0.301,0.016
-0.058,-0.293,0.107
-0.058,-0.293,0.107
0.138,-0.475,0.256
0.211,-0.497,0.108
0.449,-0.952,-0.041
0.185,-0.268,0.323
-0.082,-0.001,0.398
-0.2,0.05,0.119
-0.01,-0.133,-0.148
0.04,-0.103,-0.185
0.053,0.008,-0.375
-0.004,0.033,-0.417
-0.052,0.001,-0.41
-0.066,-0.047,-0.162
-0.144,0,0.108
-0.055,0.006,0.167
-0.057,-0.136,0.096
-0.098,-0.243,0.091
-0.022,-0.217,0.025
-0.261,-0.085,0.027
-0.206,0.057,0.245
-0.053,-0.044,0.3
0.001,-0.215,0.134
0.135,-0.227,0.04
0.255,-0.206,-0.085
0.267,-0.12,-0.161
0.314,-0.098,-0.213
0.281,-0.088,-0.257
0.277,-0.028,-0.228
0.277,-0.032,-0.237
0.301,-0.17,-0.198
0.223,-0.081,-0.247
0.126,0.149,-0.401
0.072,0.391,-0.547
0.187,0.518,-0.734
0.213,0.524,-1.025
0.172,0.556,-1.219
0.128,0.604,-1.366
0.103,0.589,-1.39
0.066,0.626,-1.286
0.032,0.644,-1.127
-0.051,0.614,-0.872
-0.117,0.603,-0.502
-0.223,0.6,-0.093
-0.377,0.522,0.328
-0.539,0.433,0.763
-0.541,0.414,1.146
-0.579,0.339,1.356
-0.669,0.276,1.169
-0.684,0.288,0.878
-0.654,0.235,0.611
-0.639,0.271,0.508
-0.622,0.257,0.303
-0.62,0.254,0.095
-0.617,0.263,-0.106
-0.671,0.235,-0.306
-0.732,0.209,-0.376
-0.724,0.201,-0.33
-0.715,0.2,-0.274
-0.648,0.157,-0.301
-0.587,0.107,-0.248
-0.606,0.064,-0.202
-0.601,0.091,-0.228
-0.573,0.076,-0.193
-0.538,0.077,-0.198
-0.491,0.081,-0.196
-0.436,0.09,-0.208
-0.387,0.076,-0.205
-0.353,0.153,-0.189
-0.302,0.163,-0.235
-0.296,0.153,-0.25
-0.258,0.174,-0.19
-0.263,0.156,-0.225
-0.175,0.191,-0.256
-0.14,0.176,-0.305
-0.072,0.168,-0.358
-0.008,0.163,-0.346
0.022,0.132,-0.333
0.101,0.093,-0.354
0.115,0.108,-0.371
-0.067,0.155,-0.303
0.111,0.122,-0.418
0.069,0.091,-0.207
0,0.05,-0.083
-0.05,-0.017,-0.107
0.247,-0.093,-0.06
0.263,-0.053,-0.045
0.285,-0.039,-0.054
0.464,-0.125,-0.052
0.464,-0.125,-0.052
0.606,-0.078,-0.011
0.577,-0.054,0.054
0.517,0.015,0.096
0.506,0.048,0.08
0.425,0.002,0.044
0.224,-0.038,0.102
0.107,-0.051,0.174
0.106,-0.077,0.247
0.139,-0.096,0.323
0.162,-0.07,0.302
0.171,-0.103,0.277
0.146,-0.108,0.222
0.09,-0.12,0.126
0.079,-0.134,0.079
-0.004,-0.136,0.02
-0.008,-0.138,0.017
-0.008,-0.138,0.017
-0.003,-0.148,-0.027
-0.046,-0.098,-0.05
-0.046,-0.098,-0.05
-0.046,-0.114,-0.047
-0.046,-0.114,-0.047
-0.059,-0.118,-0.121
-0.033,-0.135,-0.179
-0.065,-0.134,-0.058
-0.081,-0.101,0.029
-0.114,-0.08,0.069
-0.069,-0.102,0.078
-0.071,-0.119,0.066
-0.071,-0.119,0.066
-0.076,-0.06,-0.08
-0.07,-0.103,-0.05
-0.07,-0.103,-0.05
-0.011,-0.083,-0.104
-0.011,-0.083,-0.104
0.009,-0.086,-0.033
0.029,-0.025,0.055
0.029,-0.025,0.055
0.053,0.016,0.055
0.016,-0.067,-0.033
-0.138,-0.013,0.039
-0.123,-0.027,0.012
-0.123,-0.027,0.012
-0.052,-0.084,0.021
-0.052,-0.084,0.021
-0.031,-0.061,0.024
-0.143,-0.094,-0.055
-0.143,-0.094,-0.055
-0.125,0.065,0.026
-0.125,0.065,0.026
-0.01,0.069,0.08
-0.045,0.038,0.027
-0.045,0.038,0.027
-0.077,0.039,0.06
-0.048,0.024,-0.005
-0.035,0.101,-0.014
0.004,0.121,-0.003
0.004,0.121,-0.003
-0.001,0.164,-0.157
0.022,0.156,-0.227
0.019,0.153,-0.273
0.033,0.098,-0.319
0.023,0.077,-0.376
-0.058,0.094,-0.23
-0.058,0.048,-0.163
-0.001,0.055,-0.183
-0.035,0.047,-0.054
-0.012,0.059,-0.011
-0.085,0.059,-0.065
-0.067,0.054,-0.055
-0.07,0.023,-0.036
-0.109,0.037,0
-0.057,0.056,-0.026
-0.041,0.077,-0.044
-0.026,-0.053,0.094
-0.014,-0.031,0.084
-0.029,-0.063,0.137
-0.069,-0.029,0.144
-0.091,-0.019,0.146
-0.06,-0.032,0.06
-0.044,-0.043,0.012
-0.002,-0.04,-0.014
-0.005,-0.017,0.011
0.004,-0.012,0.012
0.036,-0.005,-0.058
0.049,-0.001,-0.133
0.019,0.02,-0.156
0.034,0,-0.095
0.057,0.01,-0.165
0.039,0.002,-0.08
0.01,0.015,-0.016
0.01,-0.016,-0.011
-0.022,-0.01,-0.009
0.019,-0.036,-0.012
0.052,-0.058,-0.057
0.02,-0.035,-0.038
0.01,-0.042,-0.026
-0.013,-0.066,0
-0.007,-0.04,0.029
-0.012,-0.028,0
-0.037,-0.026,-0.008
-0.003,-0.002,0.041
-0.005,-0.009,0.008
-0.06,0.028,-0.068
-0.066,0.03,-0.096
-0.03,0.006,-0.105
-0.052,0.037,-0.017
-0.054,0.036,-0.004
-0.006,0.009,-0.065
-0.018,0.011,-0.097
0.032,0.018,-0.094
0.023,0.007,-0.094
0.002,0.018,-0.012
0.005,-0.036,0.112
0.024,0.003,0.105
-0.026,0.031,0.088
-0.087,-0.016,0.058
-0.067,-0.024,0.068
-0.042,-0.04,-0.014
0.026,-0.007,-0.088
0.042,-0.055,-0.067
0.012,-0.057,0.01
-0.037,-0.055,0.071
-0.04,-0.033,0.086
-0.074,-0.061,0.037
-0.087,-0.054,0.025
-0.076,-0.063,0.06
-0.055,-0.027,0.029
-0.076,-0.046,0.079
-0.08,-0.039,0.073
-0.069,-0.01,0.048
-0.064,-0.033,0.041
-0.063,-0.028,0.01
-0.082,-0.037,0.034
-0.067,-0.001,0.068
-0.038,0.023,0.009
0.08,-0.034,-0.058
0.072,-0.056,0.001
0.098,-0.044,0.011
0.063,-0.024,-0.036
0.044,-0.034,-0.042
0.039,-0.034,-0.079
0.055,-0.001,-0.049
0.076,0.002,-0.016
0.07,0.017,-0.009
0.078,0.015,0.036
0.051,0.007,0.031
0.065,0.003,0.026
0.071,-0.011,0.094
0.1,-0.035,0.115
0.141,-0.027,0.09
0.123,-0.025,0.074
0.106,-0.035,0.044
0.11,-0.04,-0.016
0.093,-0.077,-0.037
0.013,-0.031,-0.037
0.002,-0.033,-0.053
0.008,-0.051,-0.044
-0.013,-0.003,-0.024
-0.047,-0.009,-0.043
-0.05,-0.011,-0.042
-0.046,0.013,-0.068
-0.054,0.022,-0.077
-0.055,-0.003,-0.105
-0.014,0.019,-0.083
-0.063,0.053,-0.065
-0.02,0.033,-0.065
-0.025,0.048,-0.084
-0.039,0.028,-0.065
-0.015,0.016,-0.046
0.022,0.037,-0.003
0.005,0.023,0.001
0.022,0.047,0.039
0.027,0.002,0.063
0.025,0.045,0.068
-0.015,0.04,0.061
-0.007,0.021,0.037
-0.011,0.031,-0.004
0.021,0,-0.052
0,0.007,-0.05
-0.015,-0.004,-0.021
-0.084,0,0.014
-0.084,0,0.014
-0.081,-0.012,0.04
-0.037,0.003,-0.062
-0.037,0.003,-0.062
-0.045,0.005,-0.17
-0.045,0.005,-0.17
-0.017,0.039,-0.189
-0.027,-0.001,0.003
-0.027,-0.001,0.003
-0.075,0.048,0.023
-0.082,0.053,0.018
-0.082,0.053,0.018
-0.036,0.029,-0.072
-0.036,0.029,-0.072
0.008,0.015,-0.102
0.008,0.015,-0.102
-0.032,0.056,-0.119
-0.053,0.031,-0.056
-0.053,0.031,-0.056
-0.017,0.065,0.055
-0.048,0.036,-0.013
-0.048,0.036,-0.013
0.001,0.009,-0.027
0.001,0.009,-0.027
-0.037,0.057,-0.104
-0.037,0.057,-0.104
-0.004,0.026,-0.073
0.014,0.024,-0.006
0.021,0.012,0.024
0.033,0.002,-0.04
-0.019,-0.014,-0.031
-0.031,-0.019,0.038
-0.057,0.002,0.052
-0.026,0.021,-0.004
-0.067,-0.007,-0.031
-0.048,0.007,-0.069
-0.007,0.014,-0.122
-0.031,0.019,-0.112
-0.069,0.028,-0.028
-0.031,0.026,0.002
-0.074,0.062,-0.004
-0.078,0.035,-0.033
-0.064,0.035,-0.092
-0.026,0.04,-0.131
0.007,0.066,-0.116
0.012,0.049,-0.064
-0.002,0.063,-0.03
-0.004,0.072,-0.009
-0.002,0.058,0.009
-0.009,0.041,-0.028
0.026,0.045,-0.002
0.02,0.047,0.049
0.006,0.035,0.013
0.035,0.04,-0.031
0.006,0.028,-0.041
0.025,0.023,-0.051
0.023,0.028,-0.07
0.011,0.004,-0.106
0.04,0.031,-0.027
0,0.022,-0.022
-0.033,0.041,-0.048
-0.077,0.022,-0.043
-0.069,0.044,-0.036
-0.048,0.037,-0.055
0.001,0.041,-0.098
0.008,0.017,-0.138
-0.005,0.032,-0.112
-0.084,0.056,-0.033
-0.05,0.025,-0.023
-0.038,0.049,-0.035
-0.007,0.022,-0.028
0.043,0.063,0.021
0.024,0.08,0.024
0.024,0.037,-0.042
0.024,0.049,-0.057
0.003,0.039,-0.059
-0.008,0.021,0.014
-0.01,0.031,0.038
-0.01,0.031,0.038
-0.021,0.06,-0.006
-0.002,0.065,-0.068
0,0.048,-0.073
0.023,0.053,-0.08
0.021,0.065,-0.073
0.047,0.058,-0.104
0.026,0.072,-0.123
0.04,0.024,-0.063
0.062,0.05,-0.037
0.066,0.046,-0.025
0.062,0.022,0.012
0.038,0.017,0.022
0.024,0.017,0.022
0.047,0.043,-0.013
0.035,0.013,-0.044
0.002,0.03,-0.047
0.004,0.052,-0.028
-0.016,0.057,-0.069
0.004,0.011,-0.083
-0.021,0.037,-0.083
-0.028,0.057,-0.079
-0.004,0.057,-0.065
-0.023,0.045,-0.055
0.002,0.069,-0.084
-0.007,0.061,-0.12
-0.002,0.059,-0.096
0.006,0.092,-0.135
0.042,0.097,-0.116
0.041,0.063,-0.071
0.072,0.072,-0.056
0.029,0.093,-0.035
-0.008,0.031,-0.04
0.046,0.077,-0.006
0.034,0.096,0.053
0.058,0.058,0.017
0.052,0.027,0.01
0.021,0.034,0.012
-0.031,0.007,0.024
-0.011,0.046,0.032
-0.001,0.015,-0.027
0.01,0.034,-0.075
-0.008,0.019,-0.094
-0.016,0.024,-0.113
-0.008,0.01,-0.12
0.046,0.027,-0.158
0.015,0.014,-0.117
0.004,0.047,-0.033
0.023,0.033,-0.04
0.035,0.04,-0.045
0.017,0.021,-0.031
-0.014,0.054,0.019
0.017,0.049,0.023
0.014,0.03,-0.021
0.014,0.069,-0.028
0.004,0.042,-0.043
0.033,0.038,-0.04
0.04,0.033,-0.045
0.028,0.033,-0.057
0.028,0.033,-0.057
0.007,0.019,-0.045
0.023,0.038,-0.033
0.011,0.031,-0.055
0.011,0.031,-0.055
0.029,0.038,-0.055
0.046,0.036,-0.055
0.046,0.036,-0.055
0.086,0.024,-0.065
0.067,0.055,-0.017
0.041,0.067,-0.031
0.072,0.057,-0.017
0.084,0.033,-0.01
0.026,0.017,0.011
0.05,0.002,-0.003
0.012,0.014,0.027
0.055,-0.042,-0.008
0.055,-0.042,-0.008
-0.006,-0.044,-0.015
-0.006,-0.044,-0.015
-0.037,-0.056,-0.014
-0.011,-0.041,-0.151
-0.011,-0.041,-0.151
-0.004,-0.005,-0.076
-0.004,-0.005,-0.076
-0.015,0.01,-0.04
-0.005,0.046,-0.018
-0.005,0.046,-0.018
0.051,0.041,-0.102
0.056,0.037,-0.107
0.056,0.037,-0.107
0.054,0.039,-0.037
0.054,0.039,-0.037
0.066,0.005,0.007
0.047,0.008,0
0.047,0.008,0
0.076,0.015,0.003
0.076,0.015,0.003
0.037,0.001,0.025
0.037,0.001,0.025
0.052,-0.018,0.035
0.033,-0.049,0.008
0.033,-0.049,0.008
-0.002,-0.07,-0.022
-0.007,-0.049,-0.051
-0.007,-0.049,-0.051
0.014,-0.057,-0.015
-0.002,-0.038,-0.005
0.021,-0.05,-0.02
0.009,-0.034,-0.023
0.016,-0.05,0
0.002,-0.055,-0.006
0.006,-0.043,-0.021
0.026,-0.067,-0.016
-0.024,-0.026,-0.009
-0.115,-0.041,0.131
-0.096,-0.058,0.148
-0.007,-0.007,-0.005
0.167,-0.091,-0.273
0.074,-0.179,-0.139
-0.088,-0.1,-0.108
-0.161,-0.016,0.157
-0.274,-0.144,0.284
-0.307,-0.29,0.38
-0.307,-0.29,0.38
0.033,-0.19,0.131
0.11,-0.207,0.045
0.086,-0.22,-0.053
0.047,-0.255,-0.038
0.028,-0.243,-0.026
-0.04,-0.191,0.049
0.047,-0.217,0.001
0.114,-0.155,-0.081
0.193,-0.184,-0.096
0.177,-0.143,-0.158
0.239,-0.224,-0.134
0.344,-0.279,-0.144
0.375,-0.204,-0.165
0.371,-0.31,-0.093
0.389,-0.387,0.124
0.388,-0.464,0.329
0.372,-0.483,0.365
0.354,-0.495,0.334
0.371,-0.514,0.229
0.383,-0.582,0.155
0.551,-0.971,0.085
0.298,-0.588,0.188
0.193,-0.356,-0.291
0.132,-0.119,-0.402
0.269,-0.235,-0.354
0.383,-0.34,-0.298
0.343,-0.397,-0.056
0.248,-0.401,0.201
0.206,-0.453,0.396
0.141,-0.441,0.503
0.121,-0.356,0.454
0.068,-0.364,0.339
