accx,accy,accz
-0.03,-0.041,0.237
0.019,-0.034,0.246
0.019,-0.034,0.246
-0.027,-0.02,0.321
-0.101,-0.063,0.398
-0.101,-0.063,0.398
-0.182,-0.04,0.3
-0.11,-0.028,0.285
-0.014,-0.052,0.182
0.038,-0.024,0.134
0.036,0.062,0.07
-0.03,0.031,0.043
-0.04,-0.043,0.125
-0.04,-0.043,0.125
-0.066,-0.041,0.12
-0.066,-0.041,0.12
-0.011,-0.04,0.203
-0.011,-0.04,0.203
0.039,-0.059,0.249
-0.022,-0.092,0.299
-0.041,-0.053,0.227
-0.088,-0.013,0.158
-0.086,-0.027,0.071
-0.038,-0.013,-0.002
-0.036,-0.015,0.009
-0.024,-0.005,0.045
-0.024,-0.005,0.045
-0.05,-0.027,0.183
-0.067,-0.091,0.437
-0.029,-0.093,0.485
-0.043,-0.117,0.48
-0.031,-0.081,0.437
0.002,-0.098,0.317
-0.009,-0.07,0.281
0,-0.056,0.219
0.021,-0.022,0.252
0.023,-0.008,0.245
0,0.044,0.137
-0.021,0.035,0.018
-0.021,0.064,-0.038
-0.062,0.09,-0.074
-0.059,0.104,-0.057
-0.059,0.104,-0.057
-0.05,0.039,0.086
-0.069,0,0.16
-0.093,-0.027,0.246
-0.082,-0.015,0.314
-0.082,-0.015,0.314
-0.087,-0.03,0.251
-0.066,-0.052,0.266
-0.105,-0.062,0.254
-0.126,-0.021,0.223
-0.169,-0.002,0.28
-0.183,-0.055,0.283
-0.214,-0.022,0.235
-0.214,-0.022,0.235
-0.128,-0.058,0.24
-0.128,-0.035,0.168
-0.128,-0.035,0.168
-0.183,-0.028,0.181
-0.183,-0.028,0.181
-0.083,-0.023,0.305
-0.038,0.002,0.33
0.001,-0.009,0.33
0.07,0.007,0.306
0.07,0.007,0.306
0.01,0.039,0.251
0.01,0.039,0.251
-0.006,0.034,0.191
-0.044,0.006,0.088
-0.071,0.056,0.2
-0.047,0.061,0.2
-0.023,0.018,0.19
-0.003,-0.06,0.362
-0.029,-0.053,0.271
-0.118,-0.05,0.14
-0.222,-0.057,0.135
-0.256,-0.026,0
-0.225,-0.046,0
-0.184,-0.038,0.014
-0.11,-0.048,0.12
-0.103,-0.029,0.162
-0.076,-0.043,0.162
-0.105,-0.089,0.318
-0.177,-0.07,0.239
-0.237,-0.058,0.296
-0.196,-0.077,0.368
-0.167,-0.029,0.284
-0.084,-0.043,0.306
-0.055,-0.017,0.234
0.002,0.009,0.189
0.007,-0.047,0.217
-0.018,-0.03,0.237
-0.08,0.008,0.155
-0.075,0.005,0.196
-0.108,0.013,0.126
-0.113,0.022,0.141
-0.156,0.021,0.117
-0.156,0.021,0.117
-0.094,0,0.16
-0.056,-0.029,0.155
-0.049,0,0.186
-0.08,0.02,0.203
-0.08,0.02,0.203
-0.136,-0.022,0.325
-0.124,-0.063,0.33
-0.091,-0.013,0.275
-0.098,0.012,0.198
-0.098,0.012,0.198
-0.127,-0.006,0.163
-0.127,-0.006,0.163
-0.213,-0.034,0.271
-0.203,-0.051,0.266
-0.203,-0.051,0.266
-0.191,-0.079,0.355
-0.191,-0.079,0.355
-0.167,-0.034,0.295
-0.189,0.001,0.142
-0.189,0.001,0.142
-0.259,-0.006,0.124
-0.259,-0.006,0.124
-0.159,-0.035,0.294
-0.133,0.018,0.263
-0.133,0.018,0.263
-0.169,-0.029,0.145
-0.169,-0.029,0.145
-0.274,-0.061,0.188
-0.293,-0.022,0.164
-0.293,-0.022,0.164
-0.176,-0.056,0.203
-0.176,-0.056,0.203
-0.171,-0.068,0.296
-0.223,-0.058,0.335
-0.223,-0.058,0.335
-0.266,-0.039,0.179
-0.266,-0.039,0.179
-0.235,-0.048,0.175
-0.177,-0.017,0.234
-0.177,-0.017,0.234
-0.129,-0.04,0.225
-0.167,-0.083,0.335
-0.2,-0.092,0.375
-0.227,-0.142,0.385
-0.227,-0.142,0.385
-0.109,-0.07,0.33
-0.057,-0.053,0.289
-0.025,0.001,0.292
0.016,0.03,0.282
0.016,0.03,0.282
0.122,0.072,0.151
0.124,0.06,0.134
0.074,0.075,0.118
0.026,0.056,0.099
0.026,0.056,0.099
-0.019,0.025,0.111
-0.06,0.004,0.111
-0.063,-0.004,0.131
-0.063,-0.018,0.186
-0.063,-0.018,0.186
-0.103,-0.087,0.284
-0.172,-0.074,0.277
-0.174,-0.098,0.256
-0.172,-0.132,0.234
-0.172,-0.132,0.234
-0.162,-0.09,0.152
-0.131,-0.081,0.14
-0.152,-0.076,0.123
-0.149,-0.066,0.152
-0.149,-0.066,0.152
-0.145,-0.089,0.216
-0.147,-0.046,0.271
-0.097,-0.061,0.25
-0.121,-0.063,0.34
-0.109,-0.08,0.388
-0.07,-0.05,0.378
-0.07,-0.05,0.378
-0.009,0.002,0.311
0.009,0.011,0.294
0.026,0.035,0.301
0.012,-0.004,0.329
0.05,0.066,0.253
0.074,0.095,0.162
0.129,0.114,0.08
0.129,0.114,0.08
0.072,0.112,0.157
0.045,0.076,0.25
0.117,0.004,0.274
0.096,-0.014,0.346
0.096,-0.014,0.346
-0.071,-0.012,0.315
-0.126,0.042,0.25
-0.122,0.023,0.219
-0.091,0.018,0.14
-0.091,0.018,0.14
0.032,0.066,0.147
0.015,0.03,0.238
-0.049,0.018,0.338
-0.08,-0.033,0.365
-0.08,-0.033,0.365
-0.166,-0.048,0.312
-0.157,-0.024,0.253
-0.145,0.006,0.14
-0.071,0.04,0.088
-0.071,0.04,0.088
-0.066,-0.002,-0.135
-0.076,-0.022,-0.076
-0.125,-0.046,-0.09
-0.144,-0.063,-0.113
-0.144,-0.063,-0.113
-0.157,-0.047,-0.151
-0.127,-0.054,-0.092
-0.068,-0.013,-0.063
0.001,-0.02,-0.077
0.001,-0.02,-0.077
0.057,-0.017,-0.085
0.016,-0.002,-0.082
0.028,-0.018,-0.101
0.041,0.014,-0.146
0.041,0.014,-0.146
0.04,0.059,-0.219
-0.006,-0.01,-0.087
-0.049,-0.008,0.117
-0.013,-0.056,-0.061
-0.013,-0.056,-0.061
-0.064,-0.026,0.077
-0.076,-0.031,0.136
-0.043,-0.097,0.196
-0.043,-0.109,0.261
-0.026,-0.07,0.273
-0.005,-0.106,0.239
-0.024,-0.101,0.211
-0.033,-0.067,0.175
-0.042,-0.06,0.156
-0.07,-0.034,0.148
-0.07,-0.034,0.148
-0.023,0.008,0.136
-0.023,0.008,0.136
-0.076,-0.018,0.169
-0.11,-0.019,0.178
-0.11,-0.019,0.178
-0.033,-0.047,0.215
-0.033,-0.047,0.215
-0.053,-0.059,0.187
-0.14,0.007,0.131
-0.14,0.007,0.131
-0.156,0.039,0.047
-0.136,-0.013,0.024
-0.075,0.005,0.078
-0.049,0.005,0.163
-0.054,-0.019,0.227
-0.054,-0.019,0.227
-0.108,-0.088,0.392
-0.108,-0.088,0.392
-0.163,-0.115,0.399
-0.129,-0.108,0.337
-0.097,-0.073,0.316
-0.078,-0.071,0.275
-0.063,-0.071,0.292
-0.087,-0.069,0.296
-0.089,-0.074,0.287
-0.118,-0.059,0.232
-0.132,-0.057,0.141
-0.111,-0.064,0.004
-0.111,-0.064,0.004
-0.132,-0.015,-0.064
-0.097,-0.03,0.031
-0.121,-0.049,0.131
-0.098,-0.049,0.222
-0.076,-0.09,0.33
-0.098,-0.092,0.354
-0.09,-0.087,0.285
-0.075,-0.085,0.241
-0.109,-0.078,0.179
-0.107,-0.059,0.167
-0.099,-0.064,0.16
-0.09,-0.097,0.184
-0.08,-0.087,0.215
-0.111,-0.065,0.314
-0.108,-0.081,0.378
-0.108,-0.081,0.378
-0.149,-0.064,0.39
-0.149,-0.064,0.39
-0.056,-0.018,0.262
-0.07,-0.02,0.207
-0.07,-0.02,0.207
-0.014,-0.023,0.247
-0.014,-0.023,0.247
-0.033,-0.022,0.355
0.001,-0.022,0.264
0.001,-0.022,0.264
-0.055,-0.014,0.26
-0.055,-0.014,0.26
-0.07,-0.029,0.207
-0.011,-0.073,0.128
-0.011,-0.073,0.128
-0.049,-0.144,0.151
-0.049,-0.144,0.151
-0.142,-0.082,0.093
-0.201,-0.051,0.053
-0.201,-0.051,0.053
-0.101,-0.095,-0.03
-0.101,-0.095,-0.03
-0.075,-0.086,0.057
-0.115,-0.11,0.229
-0.115,-0.11,0.229
-0.231,-0.173,0.373
-0.231,-0.173,0.373
-0.236,-0.208,0.383
-0.228,-0.185,0.359
-0.228,-0.185,0.359
-0.09,-0.151,0.261
-0.09,-0.151,0.261
-0.137,-0.096,0.215
-0.142,-0.112,0.273
-0.142,-0.112,0.273
-0.151,-0.052,0.194
-0.184,-0.026,0.206
-0.143,-0.002,0.197
-0.143,-0.002,0.197
-0.124,-0.017,0.161
-0.098,-0.044,0.239
-0.091,-0.037,0.27
-0.06,-0.08,0.335
-0.067,-0.097,0.366
-0.067,-0.097,0.366
-0.139,-0.105,0.385
-0.161,-0.069,0.332
-0.154,-0.052,0.316
-0.144,-0.061,0.282
-0.144,-0.061,0.282
-0.121,-0.063,0.249
-0.121,-0.063,0.249
-0.146,-0.093,0.189
-0.194,-0.098,0.213
-0.194,-0.098,0.213
-0.209,-0.148,0.263
-0.192,-0.129,0.273
-0.156,-0.127,0.252
-0.154,-0.12,0.213
-0.154,-0.12,0.213
-0.124,-0.137,0.252
-0.145,-0.111,0.199
-0.112,-0.151,0.194
-0.164,-0.106,0.18
-0.164,-0.106,0.18
-0.104,-0.111,0.148
-0.066,-0.139,0.213
-0.056,-0.165,0.237
-0.077,-0.16,0.221
-0.077,-0.16,0.221
-0.178,-0.068,0.128
-0.175,-0.063,0.089
-0.147,-0.061,0.006
-0.115,-0.051,-0.084
-0.115,-0.051,-0.084
-0.099,-0.101,0.104
-0.137,-0.12,0.319
-0.166,-0.144,0.463
-0.171,-0.164,0.51
-0.171,-0.164,0.51
-0.17,-0.144,0.376
-0.144,-0.109,0.307
-0.108,-0.095,0.268
-0.092,-0.083,0.237
-0.082,-0.086,0.256
-0.065,-0.093,0.306
-0.082,-0.119,0.32
-0.113,-0.078,0.37
-0.182,-0.078,0.329
-0.182,-0.078,0.329
-0.179,-0.039,0.169
-0.173,-0.032,0.145
-0.139,-0.04,0.173
-0.094,-0.071,0.238
-0.094,-0.071,0.238
-0.116,-0.057,0.271
-0.112,-0.086,0.324
-0.172,-0.086,0.302
-0.141,-0.103,0.309
-0.153,-0.063,0.297
-0.133,-0.082,0.214
-0.133,-0.082,0.214
-0.198,-0.107,0.149
-0.196,-0.071,0.161
-0.229,-0.139,0.235
-0.231,-0.151,0.264
-0.224,-0.163,0.262
-0.24,-0.187,0.259
-0.23,-0.169,0.25
-0.209,-0.174,0.185
-0.226,-0.164,0.195
-0.228,-0.15,0.159
-0.211,-0.153,0.139
-0.226,-0.121,0.18
-0.214,-0.169,0.214
-0.18,-0.167,0.183
-0.216,-0.136,0.176
-0.216,-0.093,0.138
-0.247,-0.117,0.145
-0.245,-0.132,0.193
-0.228,-0.139,0.256
-0.204,-0.141,0.349
-0.22,-0.123,0.301
-0.263,-0.104,0.223
-0.215,-0.104,0.189
-0.184,-0.07,0.156
-0.16,-0.025,0.103
-0.144,-0.049,0.119
-0.139,-0.027,0.229
-0.202,-0.102,0.447
-0.224,-0.094,0.49
-0.195,-0.102,0.521
-0.195,-0.102,0.521
-0.117,-0.102,0.451
-0.11,-0.094,0.439
-0.076,-0.085,0.37
-0.053,-0.073,0.231
-0.053,-0.073,0.231
-0.039,-0.054,0.217
-0.061,-0.051,0.229
-0.061,-0.051,0.229
-0.071,-0.052,0.128
-0.097,-0.031,0.066
-0.085,-0.028,0.042
-0.134,-0.054,0.105
-0.143,-0.061,0.14
-0.149,-0.106,0.195
-0.156,-0.082,0.215
-0.142,-0.089,0.255
-0.113,-0.091,0.26
-0.164,-0.094,0.241
-0.155,-0.101,0.212
-0.126,-0.072,0.207
-0.182,-0.099,0.207
-0.141,-0.099,0.222
-0.174,-0.073,0.227
-0.178,-0.066,0.203
-0.142,-0.078,0.165
-0.113,-0.064,0.18
-0.149,-0.086,0.23
-0.151,-0.047,0.256
-0.122,-0.083,0.287
-0.105,-0.05,0.263
-0.079,-0.042,0.215
-0.108,-0.04,0.225
-0.048,-0.042,0.22
-0.07,0.004,0.163
-0.077,0.009,0.144
-0.039,0.026,0.177
-0.048,0.02,0.172
0.022,0.001,0.196
0.024,0.058,0.165
0.019,0.032,0.136
0.026,-0.003,0.186
0.062,-0.029,0.253
0.062,-0.029,0.253
-0.037,-0.048,0.198
-0.037,-0.048,0.198
-0.135,0.013,0.015
-0.123,0.041,-0.008
-0.123,0.041,-0.008
-0.011,0.057,0.02
-0.011,0.031,0.189
-0.054,-0.049,0.316
-0.104,-0.073,0.41
-0.104,-0.073,0.41
-0.135,-0.095,0.431
-0.169,-0.097,0.328
-0.169,-0.097,0.328
-0.066,-0.018,0.221
-0.066,-0.018,0.221
-0.016,0.024,0.063
-0.026,0.027,0.085
-0.071,0.008,0.106
-0.058,-0.017,-0.097
-0.058,-0.017,-0.097
-0.106,-0.038,-0.027
-0.077,-0.035,-0.041
-0.077,-0.035,-0.041
-0.043,-0.032,-0.034
-0.043,-0.032,-0.034
-0.002,-0.01,-0.003
-0.009,-0.017,-0.021
-0.009,-0.017,-0.021
-0.108,-0.023,0.01
-0.108,-0.023,0.01
-0.103,-0.021,-0.084
-0.102,0.007,-0.15
-0.092,-0.01,-0.179
-0.04,-0.007,-0.147
-0.04,-0.007,-0.147
-0.022,-0.035,0.079
-0.068,-0.026,0.127
-0.077,-0.054,0.17
-0.113,-0.059,0.165
-0.113,-0.059,0.165
-0.061,-0.016,0.071
-0.061,-0.062,0.021
-0.043,-0.028,0.028
-0.043,-0.028,0.028
-0.071,-0.038,0.045
-0.097,-0.054,0.136
-0.044,-0.052,0.15
-0.013,-0.066,0.057
-0.019,-0.047,0.073
-0.052,-0.012,0.028
-0.08,-0.012,-0.05
-0.057,-0.068,-0.017
-0.001,-0.078,-0.028
0,-0.109,0.053
-0.044,-0.116,0.066
-0.12,-0.049,0.05
-0.15,-0.071,0.016
-0.12,-0.073,-0.057
-0.084,-0.045,-0.108
-0.037,-0.031,-0.112
-0.017,-0.048,0.011
-0.035,-0.052,0.044
-0.067,-0.057,0.142
-0.094,-0.076,0.199
-0.11,-0.093,0.205
-0.11,-0.067,0.131
-0.097,-0.069,0.088
-0.085,-0.036,0.021
-0.069,-0.022,-0.011
-0.026,-0.029,0.026
-0.035,-0.033,0.05
-0.064,-0.026,0.115
-0.109,-0.066,0.189
-0.136,-0.061,0.141
-0.14,-0.073,0.139
-0.162,-0.061,0.096
-0.153,-0.061,0.043
-0.122,-0.069,0.062
-0.06,-0.079,0.078
-0.056,-0.062,0.083
-0.046,-0.068,0.081
-0.048,-0.087,0.114
-0.022,-0.089,0.09
-0.022,-0.089,0.09
-0.038,-0.073,0.116
-0.071,-0.082,0.1
-0.091,-0.089,0.037
-0.103,-0.057,-0.014
-0.122,-0.069,-0.014
-0.11,-0.102,-0.021
-0.109,-0.092,0.014
-0.097,-0.094,0.062
-0.075,-0.085,0.091
-0.068,-0.087,0.081
-0.039,-0.118,0.095
-0.037,-0.095,0.024
-0.051,-0.083,0.024
-0.056,-0.071,-0.014
-0.056,-0.061,-0.079
-0.056,-0.061,-0.079
-0.056,-0.085,-0.019
-0.054,-0.076,-0.017
-0.056,-0.038,-0.007
-0.033,-0.065,0.013
-0.059,-0.062,0
-0.014,-0.093,-0.01
-0.016,-0.078,0.044
0.002,-0.071,0.032
-0.019,-0.016,-0.005
-0.045,-0.03,-0.022
-0.026,-0.031,-0.044
-0.014,-0.019,-0.072
-0.043,0,-0.106
-0.046,-0.001,-0.058
-0.054,-0.034,0.027
-0.126,-0.085,0.104
-0.114,-0.112,0.168
-0.13,-0.095,0.214
-0.154,-0.108,0.219
-0.12,-0.12,0.185
-0.103,-0.118,0.173
-0.084,-0.082,0.185
-0.041,-0.08,0.125
0.003,-0.075,0.066
-0.068,-0.056,0.063
-0.06,-0.063,0.013
-0.094,-0.058,-0.008
-0.101,-0.1,-0.02
-0.127,-0.079,-0.048
-0.098,-0.09,-0.012
-0.095,-0.09,-0.002
-0.093,-0.111,0
-0.098,-0.104,0.009
-0.112,-0.13,0.066
-0.093,-0.136,0.122
-0.093,-0.136,0.122
-0.069,-0.113,0.131
-0.08,-0.113,0.098
-0.092,-0.095,0.026
-0.101,-0.102,0
-0.101,-0.102,0
-0.144,-0.083,-0.034
-0.139,-0.078,-0.049
-0.127,-0.102,-0.005
-0.122,-0.114,0.013
-0.141,-0.09,0.051
-0.108,-0.105,0.049
-0.132,-0.133,0.058
-0.127,-0.107,0.027
-0.149,-0.095,0.025
-0.118,-0.105,0.005
-0.135,-0.107,0.051
-0.14,-0.114,0.092
-0.148,-0.109,0.091
-0.143,-0.095,0.099
-0.136,-0.122,0.094
-0.136,-0.122,0.094
-0.179,-0.088,0.02
-0.141,-0.114,0.005
-0.132,-0.117,0.039
-0.099,-0.143,0.096
-0.092,-0.126,0.123
-0.096,-0.09,0.101
-0.139,-0.074,0.039
-0.154,-0.076,-0.006
-0.149,-0.038,-0.025
-0.166,-0.05,0.015
-0.114,-0.086,0.063
-0.093,-0.05,0.144
-0.112,-0.098,0.24
-0.111,-0.115,0.278
-0.118,-0.119,0.297
-0.121,-0.126,0.192
-0.128,-0.102,0.158
-0.106,-0.102,0.106
-0.118,-0.08,0.013
-0.178,-0.102,0.02
-0.168,-0.133,0.018
-0.187,-0.13,0.059
-0.199,-0.163,0.09
-0.199,-0.163,0.09
-0.272,-0.139,0.023
-0.277,-0.158,0.014
-0.277,-0.158,0.014
-0.242,-0.158,0
-0.242,-0.158,0
-0.228,-0.163,0.102
-0.18,-0.171,0.114
-0.199,-0.169,0.111
-0.182,-0.162,0.044
-0.182,-0.162,0.044
-0.203,-0.146,0.041
-0.234,-0.134,0.036
-0.234,-0.134,0.036
-0.208,-0.121,0.105
-0.208,-0.121,0.105
-0.244,-0.109,0.088
-0.244,-0.109,0.088
-0.157,-0.159,0.158
-0.17,-0.058,0.083
-0.17,-0.058,0.083
-0.134,-0.046,0.04
-0.123,-0.018,0.021
-0.123,-0.018,0.021
-0.08,0.022,0.049
-0.08,0.022,0.049
-0.128,0,0.104
-0.138,0.023,0.123
-0.138,0.023,0.123
-0.136,-0.021,0.093
-0.136,-0.021,0.093
-0.19,0.004,0.019
-0.19,0.004,0.019
-0.139,-0.1,0.093
-0.156,-0.119,0.169
-0.156,-0.119,0.169
-0.217,-0.107,0.15
-0.272,-0.097,0.042
-0.322,-0.066,-0.014
-0.286,-0.083,-0.107
-0.286,-0.083,-0.107
-0.172,-0.087,-0.045
-0.147,-0.126,0.045
-0.188,-0.171,0.17
-0.206,-0.173,0.225
-0.206,-0.173,0.225
-0.285,-0.178,0.163
-0.285,-0.178,0.163
-0.196,-0.08,-0.094
-0.174,-0.039,-0.211
-0.174,-0.039,-0.211
-0.107,-0.004,-0.337
-0.081,-0.02,-0.237
-0.093,-0.013,-0.148
-0.09,-0.044,-0.052
-0.09,-0.044,-0.052
-0.146,-0.054,0.038
-0.131,-0.032,0.017
-0.11,-0.047,0.024
-0.057,-0.049,0.024
-0.057,-0.049,0.024
-0.067,-0.047,0.061
-0.05,-0.034,0.113
-0.076,-0.024,0.114
-0.085,-0.02,0.13
-0.085,-0.02,0.13
-0.102,-0.012,-0.005
-0.124,0.037,-0.031
-0.138,0.016,-0.043
-0.136,0.023,-0.035
-0.136,0.023,-0.035
-0.141,0,0.023
-0.135,-0.013,0.066
-0.116,-0.011,0.148
-0.106,-0.023,0.145
-0.106,-0.023,0.145
-0.092,-0.036,0.073
-0.104,-0.041,0.03
-0.071,-0.024,-0.044
-0.1,-0.012,-0.08
-0.1,-0.012,-0.08
-0.1,-0.01,-0.064
-0.104,0.017,-0.028
-0.099,-0.006,-0.05
-0.073,-0.009,-0.026
-0.114,0.002,-0.047
-0.073,0.014,-0.081
-0.034,-0.025,-0.077
0.036,-0.086,0.004
0.032,-0.117,0.054
-0.034,-0.083,0.056
-0.093,-0.035,0.063
-0.093,-0.035,0.063
-0.082,-0.005,-0.07
-0.039,-0.01,-0.099
-0.039,-0.01,-0.099
-0.006,0.003,-0.011
0,-0.063,-0.013
-0.008,-0.066,0.048
-0.032,-0.07,0.093
-0.051,-0.054,0.115
-0.01,-0.061,0.074
0.011,-0.008,0.036
0.028,-0.007,0.036
-0.01,-0.01,0.026
-0.01,-0.01,0.026
-0.041,-0.014,-0.016
-0.072,-0.004,-0.047
-0.058,-0.073,-0.051
-0.112,-0.032,-0.008
-0.15,-0.032,0.013
-0.16,-0.055,0.049
-0.15,-0.048,0.078
-0.112,-0.062,0.032
-0.084,-0.036,0.016
-0.084,-0.067,0.026
-0.038,-0.032,0.053
-0.014,-0.045,0.1
-0.014,-0.038,0.09
-0.047,-0.044,0.097
-0.037,-0.02,0.084
-0.051,-0.039,0.095
-0.042,-0.043,0.101
-0.054,-0.019,0.033
-0.023,-0.021,0.046
-0.014,-0.008,0.038
-0.017,0.025,0.049
0.023,-0.014,0.079
0.016,0.031,0.004
0.013,0.028,0.013
0.003,0.031,0.006
0.024,-0.023,0.038
0.045,-0.011,0.043
0.034,0.019,0.012
0.053,0,-0.033
0.017,0.009,-0.08
-0.008,-0.002,-0.093
-0.059,-0.063,-0.09
-0.059,-0.063,-0.09
-0.109,-0.056,-0.069
-0.031,-0.08,-0.043
-0.031,-0.08,-0.043
-0.045,-0.117,0.049
-0.045,-0.117,0.049
-0.135,-0.138,0.041
-0.195,-0.06,-0.044
-0.195,-0.06,-0.044
-0.112,-0.058,-0.095
-0.071,-0.041,-0.097
-0.018,-0.021,-0.08
-0.018,-0.021,-0.08
-0.051,-0.069,0.029
-0.159,-0.07,0.138
-0.166,-0.105,0.178
-0.139,-0.134,0.156
-0.101,-0.105,0.164
-0.096,-0.071,0.166
-0.023,-0.076,0.123
-0.024,-0.068,0.083
-0.001,-0.013,0.025
-0.023,-0.008,-0.004
-0.056,-0.039,-0.057
-0.061,-0.015,-0.126
-0.095,0.004,-0.114
-0.074,-0.033,-0.148
-0.105,-0.036,-0.104
-0.081,-0.062,-0.033
-0.112,-0.088,0.012
-0.1,-0.091,0.043
-0.067,-0.122,0.103
-0.107,-0.132,0.131
-0.095,-0.132,0.167
-0.109,-0.132,0.23
-0.1,-0.129,0.16
-0.107,-0.1,0.134
-0.112,-0.088,0.043
-0.076,-0.074,-0.035
-0.085,-0.031,-0.104
-0.092,-0.05,-0.069
-0.085,-0.069,-0.031
-0.056,-0.076,0.023
-0.083,-0.067,0.033
-0.061,-0.088,0.049
-0.061,-0.088,0.049
-0.059,-0.115,0.023
-0.074,-0.069,-0.017
-0.074,-0.069,-0.017
-0.081,-0.096,-0.012
-0.094,-0.079,0.044
-0.094,-0.079,0.044
-0.079,-0.057,-0.01
-0.079,-0.057,-0.01
-0.06,-0.093,-0.173
-0.047,-0.103,-0.216
-0.047,-0.103,-0.216
-0.008,-0.124,-0.043
-0.008,-0.124,-0.043
-0.118,-0.113,0.124
-0.194,-0.118,0.098
-0.194,-0.094,-0.054
-0.175,-0.104,-0.16
-0.175,-0.104,-0.16
-0.137,-0.061,-0.246
-0.137,-0.061,-0.246
-0.133,-0.08,-0.155
-0.143,-0.14,0.138
-0.143,-0.14,0.138
-0.174,-0.154,0.227
-0.174,-0.154,0.227
-0.165,-0.164,0.22
-0.102,-0.097,0.186
-0.059,-0.039,0.114
0.02,-0.054,-0.026
0.011,-0.03,-0.038
0.011,-0.03,-0.038
-0.055,-0.049,-0.026
-0.055,-0.049,-0.026
-0.096,-0.028,-0.058
-0.127,-0.04,-0.065
-0.1,-0.059,-0.108
-0.074,-0.077,-0.116
-0.074,-0.077,-0.116
0.001,-0.055,-0.066
-0.025,-0.091,-0.042
-0.042,-0.132,-0.001
-0.112,-0.127,-0.001
-0.112,-0.127,-0.001
-0.1,-0.118,-0.018
-0.049,-0.135,-0.045
-0.077,-0.14,-0.044
-0.106,-0.142,-0.044
-0.151,-0.141,-0.049
-0.167,-0.162,-0.02
-0.208,-0.141,-0.013
-0.224,-0.121,-0.015
-0.179,-0.14,-0.003
-0.179,-0.14,-0.003
-0.15,-0.143,0.042
-0.128,-0.133,0.04
-0.109,-0.128,0.042
-0.083,-0.119,0
-0.083,-0.119,0
-0.121,-0.102,-0.064
-0.099,-0.115,-0.024
-0.169,-0.069,-0.007
-0.15,-0.067,0.014
-0.15,-0.067,0.014
-0.081,-0.089,0.007
-0.064,-0.115,0.031
-0.042,-0.11,0.038
-0.085,-0.11,0.019
-0.085,-0.11,0.019
-0.172,-0.057,0.003
-0.181,-0.097,-0.032
-0.152,-0.057,-0.044
-0.136,-0.066,0.027
-0.136,-0.066,0.027
-0.09,-0.15,0.159
-0.146,-0.121,0.166
-0.179,-0.147,0.153
-0.217,-0.145,0.196
-0.205,-0.172,0.151
-0.186,-0.136,0.17
-0.167,-0.127,0.126
-0.122,-0.146,0.148
-0.114,-0.132,0.128
-0.114,-0.132,0.128
-0.102,-0.132,0.063
-0.107,-0.139,0.001
-0.129,-0.132,-0.022
-0.148,-0.113,-0.022
-0.124,-0.063,-0.063
-0.065,-0.079,-0.094
-0.012,-0.082,-0.072
-0.033,-0.081,-0.039
-0.019,-0.079,-0.065
-0.019,-0.079,-0.065
-0.041,-0.117,-0.055
-0.043,-0.11,-0.036
-0.029,-0.091,-0.005
-0.014,-0.127,0.035
-0.033,-0.139,0.083
-0.069,-0.153,0.095
-0.104,-0.131,0.112
-0.114,-0.141,0.083
-0.092,-0.175,0.04
-0.082,-0.146,0.045
-0.041,-0.141,0.006
0.003,-0.133,-0.031
0.005,-0.112,-0.057
-0.017,-0.085,-0.011
-0.058,-0.121,-0.025
-0.075,-0.108,-0.018
-0.046,-0.106,-0.001
-0.046,-0.106,-0.001
0.005,-0.086,-0.054
0.005,-0.086,-0.056
0.002,-0.036,-0.128
-0.043,-0.021,-0.128
-0.036,-0.047,-0.133
0.015,-0.092,-0.087
0.039,-0.094,-0.037
0.073,-0.094,-0.035
0.02,-0.043,-0.052
0.02,-0.043,-0.052
-0.015,-0.043,-0.178
-0.01,-0.024,-0.171
0.015,-0.027,-0.131
0.03,-0.039,-0.026
0.03,-0.039,-0.026
0.047,-0.121,0.224
-0.004,-0.116,0.27
-0.074,-0.133,0.238
-0.098,-0.124,0.181
-0.069,-0.101,0.075
-0.014,-0.036,-0.027
0,-0.041,-0.07
0.035,-0.013,-0.135
0.039,-0.009,-0.097
-0.022,-0.04,-0.08
-0.027,-0.062,-0.075
-0.027,-0.062,-0.075
-0.113,-0.048,-0.059
-0.049,-0.051,-0.006
-0.054,-0.072,-0.021
0.021,-0.066,0.029
0.012,-0.092,0.045
0.012,-0.092,0.045
0.01,-0.001,0.03
-0.006,-0.023,-0.005
-0.049,0.012,0.02
-0.053,0.024,0.005
-0.053,0.024,0.005
0.005,0.022,-0.068
0.005,0.022,-0.068
0.005,0.026,-0.128
-0.031,-0.002,-0.138
-0.04,0.006,-0.122
-0.065,-0.047,-0.064
-0.073,-0.04,-0.038
-0.06,-0.058,0.037
-0.028,-0.064,0.041
-0.019,-0.057,0.034
0.012,-0.056,0.028
0.012,-0.056,0.028
0.013,-0.039,-0.018
-0.004,-0.056,-0.005
0.014,0.015,0.034
-0.035,0.027,0.022
-0.035,0.027,0.022
-0.015,0.078,-0.059
0.067,0.03,-0.075
0.134,0.008,-0.047
0.123,0.008,-0.008
0.051,0.049,-0.001
-0.02,0.045,0
-0.039,0.067,-0.032
-0.022,0.076,-0.085
0.075,0.083,-0.117
0.114,0.119,-0.137
0.133,0.09,-0.064
0.113,0.08,-0.009
0.059,0.08,0.063
-0.009,0.02,0.096
-0.017,0.028,0.131
0,0.004,0.136
0.018,0.021,0.073
0.069,0.038,0.024
0.088,0.054,0.011
0.079,0.03,-0.003
0.021,0.011,0.007
-0.029,0.026,0.004
-0.089,0.007,0.009
-0.106,0.012,0.024
-0.084,0.021,-0.021
-0.033,0.017,-0.072
-0.005,0.043,-0.053
-0.005,0.043,-0.053
-0.013,0.021,-0.024
-0.023,0.002,0.042
-0.023,0.002,0.042
-0.014,0.005,0.057
0.002,0.031,-0.023
0.008,0.024,-0.073
0.001,0.035,-0.13
0.001,0.035,-0.13
-0.096,0.03,-0.125
-0.096,0.03,-0.125
-0.129,0.008,-0.044
-0.137,0.003,0.005
-0.137,0.003,0.005
-0.165,-0.011,0.015
-0.165,-0.011,0.015
-0.195,-0.021,0.041
-0.188,-0.036,0.07
-0.188,-0.036,0.07
-0.137,-0.013,0.091
-0.137,-0.013,0.091
-0.164,-0.032,0.168
-0.183,-0.004,0.144
-0.183,-0.004,0.144
-0.104,-0.001,0.055
-0.104,-0.001,0.055
-0.061,-0.016,0.058
-0.046,-0.01,0.058
-0.046,-0.01,0.058
-0.037,0.042,0.027
-0.035,0.074,-0.032
0.022,0.098,-0.102
0.022,0.098,-0.102
0.084,0.127,-0.169
0.124,0.103,-0.102
0.103,0.106,-0.044
0.077,0.061,0.019
0.077,0.028,0.131
0.072,0.019,0.143
0.101,0.043,0.17
0.115,0.019,0.167
0.118,0.032,0.172
0.137,-0.003,0.117
0.111,0.006,0.067
0.061,0.014,0.009
0.044,0.021,-0.028
0.015,0.029,-0.119
-0.039,0.033,-0.152
-0.049,0.014,-0.167
-0.015,0.009,-0.138
-0.015,0.009,-0.138
-0.068,-0.018,-0.114
-0.102,-0.035,-0.091
-0.203,-0.04,-0.055
-0.198,-0.052,-0.005
-0.179,-0.057,0.013
-0.165,-0.07,0.075
-0.105,-0.041,0.073
-0.086,-0.034,0.018
-0.107,-0.028,-0.056
-0.107,-0.028,-0.056
-0.183,0.021,-0.223
-0.24,0.042,-0.211
-0.214,0.061,-0.115
-0.19,0.075,-0.003
-0.199,0.039,0.097
-0.144,0.039,0.123
-0.127,-0.008,0.176
-0.149,0.054,0.143
-0.086,0.01,0.133
-0.086,0.01,0.133
0.032,0.022,0.177
0.053,0.053,0.182
0.053,0.087,0.151
0.06,0.099,0.091
0.06,0.099,0.091
0.052,0.065,0.015
0.002,0.056,0.005
-0.033,0.04,-0.004
-0.04,0.047,-0.037
-0.084,0.069,-0.092
-0.074,0.045,-0.157
-0.007,0.069,-0.224
0,0.055,-0.209
0.015,0.067,-0.147
-0.005,0.038,-0.114
-0.061,0.026,-0.001
-0.095,-0.014,0.079
-0.148,-0.006,0.098
-0.145,-0.014,0.1
-0.081,-0.016,0.11
0,-0.016,0.028
0.05,0,-0.019
0.074,0.048,-0.09
0.059,0.034,-0.107
0.03,0.046,-0.117
0.018,0.044,-0.071
-0.057,0.084,-0.074
-0.057,0.084,-0.074
-0.124,0.103,-0.093
-0.088,0.062,-0.165
-0.042,0.062,-0.217
-0.078,0.095,-0.205
-0.078,0.095,-0.205
-0.071,0.051,-0.029
-0.049,0.079,0.025
-0.076,0.053,0.088
-0.054,0.057,0.08
-0.054,0.057,0.08
-0.055,0.042,-0.067
-0.047,0.051,-0.048
-0.042,0.047,0
-0.025,0.051,0.004
-0.025,0.051,0.004
-0.031,0.045,0.119
-0.052,0.047,0.119
-0.069,0.033,0.093
-0.09,0.055,0.04
-0.09,0.055,0.04
-0.071,0.063,-0.028
-0.071,0.063,-0.028
0.014,0.076,-0.066
0.037,0.05,-0.037
0.028,0.083,-0.057
0.029,0.095,-0.071
0.019,0.088,-0.145
0.002,0.052,-0.148
0.057,0.021,-0.109
0.006,0.038,-0.062
-0.015,0.045,-0.002
-0.053,0.033,-0.038
-0.074,0.065,-0.036
-0.05,0.089,-0.06
-0.05,0.089,-0.06
0.08,0.109,-0.098
0.083,0.092,-0.031
0.102,0.107,0.085
0.1,0.083,0.128
0.1,0.083,0.128
0.117,0.048,0.183
0.155,0.07,0.119
0.193,0.099,0.009
0.203,0.08,-0.05
0.203,0.08,-0.05
0.157,0.102,-0.069
0.096,0.081,-0.107
0.096,0.081,-0.107
0.014,0.145,-0.275
0.014,0.145,-0.275
-0.143,0.114,-0.328
-0.196,0.089,-0.332
-0.196,0.089,-0.332
-0.323,-0.025,-0.14
-0.313,-0.041,-0.096
-0.313,-0.041,-0.096
-0.288,-0.078,0.093
-0.312,-0.074,0.148
-0.305,-0.092,0.155
-0.305,-0.092,0.155
0.018,-0.025,0.017
0.011,0.029,-0.013
0,0.029,-0.013
-0.026,0.014,0.017
-0.006,0.055,0.03
-0.013,0.054,0.015
0.037,0.064,0.011
0.042,0.009,0.047
0.04,0.04,-0.002
0.085,0.028,0.014
0.111,0.03,0.061
0.099,-0.003,0.083
0.154,-0.01,0.145
0.156,0.006,0.114
0.157,0.058,0.052
-0.042,0.063,0.064
0.005,0.038,-0.052
0.092,0.067,-0.139
0.163,0.04,-0.135
0.163,0.04,-0.135
0.116,0.031,-0.123
0.116,0.031,-0.123
0.034,0.045,-0.223
0.039,0.069,-0.223
0.155,0.094,-0.249
0.206,0.097,-0.233
0.24,0.068,-0.139
0.179,0.005,-0.048
0.106,-0.018,-0.048
0.042,-0.043,-0.016
0.042,-0.043,-0.016
0.047,-0.016,-0.121
0.047,-0.016,-0.121
0.11,0.005,-0.166
0.11,-0.034,-0.177
0.11,-0.034,-0.177
0.029,-0.038,-0.098
0.029,-0.038,-0.098
-0.029,-0.055,-0.062
-0.002,-0.072,-0.038
-0.002,-0.072,-0.038
0.044,0.1,-0.037
0.044,0.1,-0.037
0.037,0.107,-0.028
0.008,0.099,-0.078
0.008,0.099,-0.078
0.022,0.151,-0.166
0.022,0.151,-0.166
0.028,0.14,-0.258
0.085,0.179,-0.243
0.085,0.179,-0.243
0.088,0.14,-0.167
0.088,0.14,-0.167
0.128,0.148,-0.127
0.129,0.101,-0.078
0.129,0.101,-0.078
0.116,0.075,0.019
0.116,0.075,0.019
0.086,0.055,0.028
0.097,0.102,0.024
0.097,0.102,0.024
0.076,0.072,-0.049
0.076,0.072,-0.049
-0.025,0.101,-0.046
0.013,0.114,-0.051
0.013,0.114,-0.051
0.136,0.049,-0.091
0.136,0.049,-0.091
0.132,0.06,-0.134
0.098,0.129,-0.187
0.098,0.129,-0.187
0.08,0.15,-0.347
0.08,0.15,-0.347
0.132,0.129,-0.278
0.151,0.129,-0.224
0.151,0.129,-0.224
0.055,0.072,-0.058
0.012,0.038,-0.034
-0.013,-0.011,0.01
-0.013,-0.011,0.01
-0.01,0.037,-0.003
0.016,0.051,0.006
0.016,0.051,0.006
0.041,0.019,0.037
0.031,0.086,0.028
0.031,0.086,0.028
-0.029,0.028,0.04
-0.079,0.04,0.006
-0.081,0.082,0.004
-0.064,0.077,-0.019
-0.064,0.077,-0.019
0.031,0.065,-0.024
0.031,0.065,-0.024
0.03,0.067,0.027
0.008,0.079,0.013
0.008,0.079,0.013
0.007,0.097,-0.017
0.079,0.121,-0.089
0.114,0.114,-0.108
0.104,0.126,-0.112
0.104,0.126,-0.112
0.109,0.144,-0.055
0.095,0.113,0
0.054,0.091,0.029
0.038,0.099,0.007
0.038,0.099,0.007
-0.009,0.044,0.057
-0.009,0.044,0.057
0.002,0.005,0.125
-0.002,0.002,0.17
-0.002,0.002,0.17
-0.057,0.016,0.06
-0.081,0.057,-0.052
-0.071,0.024,-0.126
0.055,0.038,-0.141
0.055,0.038,-0.141
0.098,0.064,-0.097
0.098,0.064,-0.097
0.014,0.062,-0.03
-0.007,0.071,-0.095
-0.007,0.071,-0.095
0.011,0.076,-0.27
0.051,0.105,-0.253
0.054,0.076,-0.167
0.047,0.013,-0.009
0.047,0.013,-0.009
-0.029,-0.014,0.203
-0.05,-0.031,0.224
-0.071,-0.022,0.188
-0.052,-0.017,0.1
-0.052,-0.017,0.1
-0.01,0.034,0.044
0.004,0.014,0.004
-0.005,0.031,0.039
-0.031,0.033,0.018
-0.031,0.033,0.018
-0.11,0.052,-0.06
-0.11,0.052,-0.06
-0.074,0.058,-0.113
-0.074,0.058,-0.113
-0.098,0.044,-0.106
-0.06,0.018,-0.017
-0.025,0.015,-0.012
-0.059,0.037,0.018
-0.054,0.022,0.023
-0.054,0.022,0.023
-0.103,0.085,-0.036
-0.096,0.046,-0.051
-0.053,0.056,-0.106
-0.022,0.065,-0.12
-0.022,0.065,-0.12
-0.036,0.051,-0.103
-0.029,0.008,-0.048
-0.057,0.013,0.025
-0.081,-0.005,0.099
-0.095,-0.031,0.142
-0.107,-0.012,0.169
-0.097,0.001,0.042
-0.042,-0.01,-0.005
-0.023,0,-0.01
-0.023,0,-0.01
-0.032,0.045,-0.077
-0.03,0.041,-0.079
-0.016,0.01,-0.052
-0.011,0.008,-0.026
-0.037,-0.008,-0.009
-0.064,0.013,-0.007
-0.081,0.015,-0.079
-0.079,0.037,-0.103
-0.045,0.037,-0.192
-0.009,0.042,-0.18
-0.026,0.037,-0.139
-0.047,0.044,-0.034
-0.076,0.01,0.092
-0.126,-0.053,0.257
-0.126,-0.053,0.257
-0.094,-0.048,0.276
-0.041,-0.052,0.217
-0.041,-0.052,0.217
0.04,-0.008,0.088
0.014,0.034,0.028
0.014,0.034,0.028
-0.052,0.023,0.043
-0.059,0.013,0.017
-0.117,0.025,-0.033
-0.117,0.025,-0.033
-0.127,0.025,-0.056
-0.091,0.047,-0.054
-0.048,0.03,-0.068
-0.032,0.049,-0.063
-0.035,0.02,-0.013
-0.052,-0.003,0.017
-0.052,-0.003,0.017
-0.062,0,0.057
-0.107,0.012,0.048
-0.026,-0.005,0.031
-0.04,0.006,0.007
-0.057,0.03,-0.028
-0.076,0.011,-0.023
-0.135,0.037,-0.071
-0.168,0.018,-0.042
-0.154,0.009,-0.016
-0.148,-0.012,0.007
-0.148,-0.01,0.045
-0.124,-0.026,0.067
-0.155,-0.003,0.045
-0.158,-0.051,0.076
-0.172,-0.037,0.105
-0.141,-0.049,0.1
-0.127,-0.018,0.081
-0.134,-0.021,0.052
-0.165,-0.014,0.069
-0.175,0.004,0.016
-0.156,0.009,-0.018
-0.11,0.001,-0.011
-0.105,0.001,-0.047
-0.1,0,-0.057
-0.122,0.04,-0.071
-0.131,0.069,-0.143
-0.117,0.076,-0.188
-0.052,0.083,-0.141
-0.052,0.083,-0.141
-0.019,0.055,-0.016
-0.019,0.032,0.112
-0.06,0.035,0.193
-0.06,-0.007,0.194
-0.06,-0.007,0.194
-0.039,0.033,0.105
0.025,0.05,0.002
0.01,0.077,-0.001
0.034,0.07,-0.013
0.034,0.07,-0.013
0.079,0.09,-0.04
0.079,0.09,-0.04
-0.002,0.083,-0.061
-0.043,0.086,-0.104
-0.043,0.086,-0.104
-0.034,0.058,-0.109
-0.034,0.058,-0.109
0.003,0.027,0
-0.018,0.041,0.002
-0.018,0.041,0.002
-0.069,-0.006,-0.015
-0.069,-0.006,-0.015
-0.119,0.038,-0.072
-0.095,0.011,-0.07
-0.095,0.011,-0.07
-0.093,0.02,-0.08
-0.097,0.027,-0.097
-0.109,0.003,-0.073
-0.109,0.003,-0.073
-0.06,0.012,-0.099
-0.055,0.009,-0.001
-0.055,0.009,-0.001
-0.081,0.023,0.025
-0.04,0.042,0.07
-0.04,0.042,0.07
0.016,0.089,-0.061
0.028,0.103,-0.125
0.04,0.117,-0.173
0.069,0.122,-0.157
0.069,0.122,-0.157
0.006,0.131,-0.059
0.006,0.131,-0.059
0.03,0.122,-0.082
0.145,0.1,-0.092
0.145,0.1,-0.092
0.149,0.078,-0.039
0.037,0.057,-0.046
-0.036,0.082,-0.072
-0.055,0.139,-0.115
-0.055,0.139,-0.115
0.025,0.147,-0.126
0.025,0.147,-0.126
0.054,0.095,0.019
0.011,0.057,0.115
0.011,0.057,0.115
-0.096,0.036,0.132
-0.096,0.036,0.132
-0.096,0.062,-0.028
-0.055,0.065,-0.093
-0.055,0.065,-0.093
0.001,0.077,-0.067
0.001,0.077,-0.067
-0.031,0.06,-0.033
-0.046,0.05,-0.031
-0.046,0.05,-0.031
-0.076,0.026,-0.107
-0.076,0.048,-0.131
-0.07,-0.063,-0.102
-0.05,-0.037,-0.022
-0.05,-0.037,-0.022
0.003,-0.08,0.05
-0.002,-0.053,0.07
-0.056,-0.06,0.06
-0.071,-0.063,-0.027
-0.071,-0.063,-0.027
0.035,0.009,-0.035
0.04,0.032,-0.054
0.062,0.001,-0.019
0.109,0.015,0.023
0.109,0.015,0.023
0.045,-0.005,0.038
-0.005,-0.005,0.081
0.016,-0.001,0.1
0.025,-0.015,0.114
0.025,-0.015,0.114
0.077,0.001,0.148
0.125,0.003,0.196
0.108,-0.003,0.172
0.108,-0.003,0.172
0.084,0.011,0.146
0.063,0.032,0.091
0.051,0.011,0.038
0.049,0.018,0.038
0.031,0.047,0.062
0.019,0.047,0.024
0.045,0.037,0.014
0.102,-0.041,0.021
0.099,-0.02,0.1
0.017,-0.005,0.056
-0.007,-0.018,0.092
-0.073,0.007,0.062
-0.052,0.015,-0.005
0.025,0.035,-0.019
0.043,0.018,0.004
0.043,0.018,0.004
0.072,-0.014,0.137
0,-0.047,0.219
-0.056,-0.054,0.293
-0.099,-0.068,0.284
-0.099,-0.068,0.284
-0.019,-0.064,0.198
0.064,-0.047,0.183
0.071,-0.016,0.162
0.064,-0.036,0.131
0.064,-0.036,0.131
0.027,-0.026,0.095
0.005,-0.007,0.037
-0.03,-0.016,-0.05
-0.056,0.03,-0.084
-0.066,-0.002,-0.064
-0.035,-0.009,-0.062
-0.031,-0.012,0.021
0,-0.024,0.073
0.006,-0.014,0.128
0.006,-0.014,0.128
0.011,-0.057,0.145
-0.038,-0.059,0.141
-0.064,-0.049,0.117
-0.07,-0.025,0.093
-0.058,-0.045,0.132
-0.036,-0.013,0.12
-0.083,-0.03,0.089
-0.045,-0.006,0.053
-0.073,-0.046,0.049
-0.096,0.001,0.042
-0.079,-0.017,0.051
-0.055,-0.007,0.092
-0.043,-0.012,0.104
-0.032,-0.003,0.135
-0.032,-0.003,0.135
0.003,-0.007,0.154
0.015,-0.011,0.118
0.015,-0.011,0.118
-0.009,-0.018,0.125
-0.045,-0.006,0.087
-0.045,-0.006,0.087
-0.048,0.008,0.087
-0.048,0.008,0.087
0.056,-0.022,0.09
0.056,-0.022,0.09
0.088,-0.023,0.09
0.045,-0.037,0.121
-0.042,-0.035,0.119
-0.064,-0.004,0.079
-0.064,0.034,-0.011
-0.026,0.021,-0.052
0.045,0.026,-0.062
0.129,0.019,-0.067
0.097,0.023,-0.005
0.097,0.023,-0.005
-0.052,-0.037,0.178
-0.086,-0.066,0.209
-0.105,-0.033,0.219
-0.057,-0.017,0.142
-0.057,-0.017,0.142
0.104,0.001,0.103
0.14,-0.008,0.091
0.114,-0.025,0.124
0.03,-0.016,0.112
-0.022,-0.03,0.119
-0.012,-0.013,0.081
-0.04,-0.018,0.055
-0.067,-0.001,0.062
-0.014,0.005,0.062
0.038,0.036,0.024
0.057,0.019,0.048
0.04,0.028,0.052
-0.005,0.021,0.033
-0.022,0.002,0.045
-0.041,-0.021,0.072
-0.02,0,0.103
-0.01,-0.012,0.162
0.018,-0.02,0.169
0.051,-0.013,0.174
-0.005,0.008,0.09
-0.005,0.008,0.09
-0.049,-0.034,0.188
-0.049,-0.034,0.188
-0.07,-0.022,0.111
-0.058,-0.022,0.135
-0.058,-0.022,0.135
-0.015,-0.035,0.157
-0.015,-0.035,0.157
0.006,-0.029,0.097
0.015,-0.027,0.1
0.015,-0.027,0.1
-0.06,-0.017,0.076
-0.06,-0.017,0.076
-0.039,-0.031,0.139
-0.044,-0.017,0.103
-0.044,-0.017,0.103
-0.001,-0.015,-0.018
-0.001,-0.015,-0.018
0.043,-0.027,-0.009
0.026,-0.013,0.034
0.026,-0.013,0.034
-0.056,-0.025,0.12
-0.08,0.01,0.127
-0.064,-0.035,0.067
-0.064,-0.035,0.067
-0.046,-0.025,0.093
-0.01,-0.037,0.027
-0.018,0.037,0.041
0.014,-0.015,0.159
-0.014,-0.041,0.24
-0.09,-0.055,0.346
-0.121,-0.073,0.36
-0.064,-0.087,0.293
-0.03,-0.056,0.258
0.002,-0.01,0.191
0.002,-0.01,0.191
0.028,-0.007,0.165
0.019,0,0.148
-0.019,-0.045,0.131
-0.012,-0.035,0.126
-0.012,-0.035,0.126
-0.093,-0.005,0.046
-0.093,-0.005,0.046
-0.002,-0.02,0.034
0.019,0.015,0.075
0.019,0.015,0.075
0.023,-0.02,0.153
-0.031,-0.047,0.148
-0.057,-0.033,0.127
-0.024,-0.043,0.062
-0.024,-0.043,0.062
-0.01,0.001,0.031
-0.01,0.001,0.031
-0.029,0,0.043
-0.065,-0.011,0.071
-0.065,-0.011,0.071
-0.091,-0.016,0.079
-0.108,-0.018,0.076
-0.089,-0.037,0.105
-0.058,-0.013,0.107
-0.058,-0.013,0.107
-0.034,-0.037,0.206
-0.041,-0.016,0.249
-0.029,-0.016,0.186
-0.046,-0.003,0.153
-0.046,-0.003,0.153
0.032,0.031,0.055
0.032,0.031,0.055
0.047,0.047,0.083
0.056,0.04,0.062
0.056,0.04,0.062
0.086,0.048,0.021
0.113,-0.006,0.031
0.115,0.012,0.05
0.089,-0.003,0.047
0.089,-0.003,0.047
-0.008,0.071,-0.004
0.005,0.059,-0.083
0.043,0.062,-0.136
0.043,0.062,-0.136
0.086,0.046,-0.093
0.086,0.008,0.131
0.07,-0.044,0.19
0.01,-0.046,0.269
-0.051,-0.063,0.235
-0.036,-0.02,0.135
-0.002,-0.009,0.036
0.045,0.033,-0.042
0.064,0.047,-0.047
0.09,0.047,-0.025
0.09,0.047,-0.025
0.043,-0.006,0.11
-0.047,-0.092,0.49
-0.052,0.034,0.584
0.071,-0.03,0.349
0.071,-0.03,0.349
0.04,-0.056,-0.145
-0.172,0.067,-0.216
-0.146,0.065,-0.183
0.004,-0.021,-0.219
0.004,-0.021,-0.219
-0.01,-0.025,-0.02
-0.062,0.002,0.063
-0.071,-0.033,0.131
0.05,-0.104,0.138
0.05,-0.104,0.138
-0.116,-0.031,0.093
0.101,0.045,0.179
0.206,-0.027,0.198
0.247,0.001,0.019
0.247,0.001,0.019
0.109,0.162,-0.236
0.111,0.19,-0.308
0.194,0.154,-0.1
0.271,0.133,0.229
0.271,0.133,0.229
0.413,0.205,0.18
0.402,0.204,0.157
0.306,0.173,0.036
0.271,0.171,-0.084
0.271,0.171,-0.084
0.227,0.176,-0.141
0.235,0.134,-0.087
0.216,0.117,-0.036
0.214,0.102,-0.121
0.252,0.051,-0.17
0.242,0.011,-0.047
0.194,-0.017,-0.042
-0.018,-0.112,0.177
-0.166,-0.25,0.255
-0.361,-0.216,0.115
-0.272,-0.314,-0.331
-0.481,0.016,0.209
-0.444,0.021,-0.114
-0.003,-0.234,0.028
0.004,-0.461,0.615
-0.322,-0.297,0.528
-0.322,-0.297,0.528
