accx,accy,accz
-0.241,-0.24,0.083
0.008,-0.074,0.176
0.008,-0.074,0.176
0.526,-0.281,1.188
0.558,-0.295,1.744
0.467,-0.338,1.967
0.467,-0.338,1.967
0.186,-0.321,2.081
0.087,-0.345,2.065
0.191,-0.288,2.071
0.464,-0.407,2.391
0.464,-0.407,2.391
1.116,-0.742,3.133
1.116,-0.742,3.133
1.353,-0.863,3.388
1.503,-1.234,3.987
1.592,-1.28,3.995
1.598,-1.303,3.846
1.625,-1.326,3.62
1.7,-1.406,3.342
1.651,-1.469,2.67
1.651,-1.469,2.67
1.573,-1.572,2.372
1.625,-1.675,2.097
1.76,-1.826,1.701
1.997,-1.795,0.925
1.997,-1.795,0.925
1.985,-1.633,0.452
1.754,-1.458,-0.127
1.542,-1.292,-0.704
1.158,-1.064,-1.897
1.158,-1.064,-1.897
1.011,-0.956,-2.556
0.897,-0.719,-3.119
0.836,-0.541,-3.642
0.921,-0.418,-4.331
0.921,-0.418,-4.331
0.918,-0.408,-4.408
0.835,-0.395,-4.438
0.728,-0.41,-4.403
0.448,-0.419,-4.415
0.448,-0.419,-4.415
0.332,-0.348,-4.461
0.264,-0.189,-4.968
0.264,-0.189,-4.968
0.265,-0.021,-5.496
0.218,0.078,-5.691
0.218,0.078,-5.691
0.198,0.225,-5.69
0.291,0.374,-5.54
0.512,0.467,-4.851
0.639,0.28,-4.625
0.639,0.28,-4.625
0.097,0.561,-4.374
-0.355,0.598,-3.846
-0.602,0.42,-2.85
-0.854,0.363,-2.123
-1.096,0.344,-1.726
-1.168,0.409,-1.274
-1.13,0.525,-0.768
-0.982,0.602,-0.224
-0.827,0.643,0.314
-0.725,0.705,1.047
-0.725,0.705,1.047
-0.549,0.57,1.377
-0.507,0.268,2.088
-0.835,0.27,2.587
-1.054,0.135,3.065
-1.054,0.135,3.065
-1.178,-0.146,3.681
-1.279,-0.357,4.28
-1.477,-0.3,4.834
-1.807,-0.116,5.319
-2.129,0.057,5.247
-2.494,0.319,4.956
-3.014,0.673,3.839
-3.176,0.937,3.211
-3.289,1.076,2.732
-3.092,0.868,2.28
-2.706,0.473,2.004
-2.103,0.057,1.934
-1.814,-0.263,2.074
-1.564,-0.669,2.253
-1.567,-1.053,2.323
-1.857,-1.141,2.245
-2.383,-0.974,1.384
-2.873,-0.726,0.596
-2.906,-0.624,-0.319
-2.935,-0.269,-1.202
-2.837,-0.172,-1.991
-2.563,-0.051,-2.592
-2.317,0.014,-3.024
-1.902,-0.004,-3.351
-1.458,-0.224,-3.606
-1.133,-0.375,-3.615
-0.979,-0.514,-3.686
-0.923,-0.617,-3.784
-0.875,-0.684,-3.959
-0.88,-0.704,-4.275
-0.834,-0.697,-4.632
-0.734,-0.647,-5.109
-0.512,-0.578,-5.517
-0.261,-0.522,-5.879
0.009,-0.446,-6.257
0.201,-0.398,-6.506
0.366,-0.414,-6.649
0.429,-0.512,-6.542
0.289,-0.547,-6.406
0.073,-0.652,-6.081
-0.154,-0.687,-5.661
-0.381,-0.673,-5.275
-0.582,-0.552,-4.995
-0.693,-0.426,-4.635
-0.658,-0.365,-4.21
-0.577,-0.22,-3.812
-0.44,-0.038,-3.51
-0.31,0.092,-3.092
-0.057,0.255,-2.556
0.098,0.306,-1.876
0.129,0.474,-1.039
0.092,0.708,-0.189
0.119,0.848,0.422
0.087,0.807,1.208
0.025,0.822,2.074
-0.089,0.816,2.917
-0.052,0.796,3.614
0.107,0.731,4.303
0.269,0.789,4.807
0.497,0.936,5.354
0.974,0.9,5.785
1.454,0.638,6.074
1.924,0.439,6.001
2.201,0.365,5.8
2.414,0.315,5.621
2.629,0.131,5.514
2.862,-0.109,5.387
2.922,-0.376,5.402
2.881,-0.572,5.397
2.796,-0.886,5.268
2.692,-1.115,4.947
2.575,-1.306,4.357
2.261,-1.265,3.418
1.875,-1.147,2.29
1.557,-1.006,1.023
1.287,-0.897,-0.208
0.934,-0.635,-1.421
0.595,-0.296,-2.463
0.517,-0.235,-3.335
0.563,-0.279,-4.058
0.705,-0.418,-4.585
0.918,-0.627,-4.928
1.046,-0.793,-5.056
1.004,-0.888,-5.054
0.891,-1.008,-4.997
0.686,-1.154,-5.013
0.39,-1.23,-5.145
0.044,-1.186,-5.47
-0.234,-1.142,-5.768
-0.411,-1.1,-6.111
-0.584,-1.063,-6.407
-0.704,-0.896,-6.647
-0.775,-0.691,-6.756
-0.759,-0.506,-6.458
-0.86,-0.369,-5.858
-1.023,-0.23,-5.162
-1.173,-0.056,-4.501
-1.212,0.047,-3.994
-1.225,0.139,-3.456
-1.281,0.311,-2.986
-1.27,0.59,-2.589
-1.27,0.59,-2.589
-1.244,1.009,-2.083
-1.165,1.026,-1.624
-1.108,1.233,-1.127
-1.082,1.444,-0.789
-0.936,1.55,-0.598
-0.746,1.565,-0.445
-0.604,1.598,-0.194
-0.565,1.61,0.091
-0.484,1.54,0.57
-0.37,1.414,1.052
-0.37,1.414,1.052
-0.19,1.03,2.398
-0.161,0.831,2.993
-0.066,0.549,3.546
-0.02,0.24,4.143
-0.02,0.24,4.143
-0.36,0.128,4.865
-0.693,0.283,4.831
-0.988,0.413,4.391
-1.193,0.523,3.619
-1.193,0.523,3.619
-1.797,0.825,1.974
-2.04,0.926,1.412
-2.144,0.824,0.927
-2.155,0.694,0.711
-2.009,0.412,0.679
-1.706,-0.003,0.774
-1.215,-0.693,1.085
-1.215,-0.693,1.085
-1.1,-1.114,1.202
-1.225,-1.374,1.059
-1.984,-1.335,0.425
-2.365,-1.192,-0.155
-2.569,-1.18,-0.799
-2.686,-1.111,-1.318
-2.686,-1.111,-1.318
-2.677,-0.97,-1.956
-1.951,-1.114,-2.477
-1.64,-1.185,-2.593
-1.184,-1.191,-2.822
-0.882,-1.174,-2.97
-0.694,-1.186,-3.062
-0.578,-1.185,-3.18
-0.491,-1.099,-3.416
-0.421,-1.044,-3.75
-0.15,-0.907,-4.34
-0.15,-0.907,-4.34
-0.047,-0.803,-4.597
0.019,-0.753,-4.718
0.17,-0.739,-4.803
0.236,-0.684,-4.847
0.236,-0.684,-4.847
0.172,-0.656,-4.806
0.172,-0.673,-4.586
0.118,-0.595,-4.358
0.085,-0.312,-4.054
0.085,-0.312,-4.054
0.068,-0.137,-3.886
-0.004,0.053,-3.645
0.035,0.268,-3.514
0.059,0.661,-2.999
0.059,0.661,-2.999
0.059,0.788,-2.604
0.051,0.878,-2.117
0.082,0.926,-1.598
0.069,1.063,-0.472
0.069,1.063,-0.472
0.175,1.142,0.031
0.279,1.121,0.581
0.359,1.108,1.193
0.359,1.108,1.193
0.39,0.984,2.317
0.383,0.921,2.783
0.414,0.94,3.497
0.414,0.94,3.497
0.673,0.714,4.276
0.777,0.621,4.448
0.906,0.614,4.67
0.906,0.614,4.67
1.051,0.492,4.812
1.366,0.168,4.69
1.484,-0.003,4.578
1.511,-0.115,4.394
1.53,-0.195,4.238
1.53,-0.195,4.238
1.982,-0.55,3.74
2.253,-0.714,3.536
2.366,-0.847,3.168
2.366,-0.847,3.168
2.381,-0.907,2.911
2.065,-1.049,2.159
1.824,-1.126,1.735
1.534,-1.265,0.864
1.534,-1.265,0.864
1.162,-0.921,0.134
0.736,-0.514,-1.144
0.625,-0.368,-1.73
0.558,-0.171,-2.281
0.57,0.007,-2.775
0.681,0.059,-3.201
0.873,0.048,-3.571
1.01,-0.028,-3.75
0.992,-0.1,-3.715
0.941,-0.246,-3.973
0.941,-0.246,-3.973
0.788,-0.709,-3.813
0.512,-0.673,-3.955
0.242,-0.746,-4.08
0.066,-0.885,-4.218
-0.13,-0.986,-4.375
-0.298,-0.998,-4.453
-0.399,-0.964,-4.57
-0.54,-0.922,-4.732
-0.627,-0.843,-4.783
-0.764,-0.719,-4.722
-0.832,-0.653,-4.748
-1.013,-0.522,-4.476
-1.214,-0.636,-4.306
-1.399,-0.751,-4.331
-1.619,-0.373,-4.202
-1.72,0.009,-4.179
-1.726,0.17,-3.826
-1.812,0.28,-3.381
-1.812,0.28,-3.381
-1.918,0.45,-1.933
-1.716,0.587,-1.315
-1.253,0.859,-0.9
-1.486,0.977,-0.527
-1.695,1.044,-0.007
-1.297,0.799,0.496
-0.774,0.545,1.652
-0.656,0.683,3.282
-0.63,0.661,3.622
-0.523,0.546,4.963
-0.394,0.183,6.143
-0.448,-0.225,6.9
-0.981,-0.172,7.029
-1.952,0.19,6.798
-1.952,0.19,6.798
-2.957,0.66,5.718
-3.263,1.197,5.166
-3.208,1.582,4.718
-2.731,1.651,4.489
-1.923,1.43,4.366
-0.758,1.055,4.194
0.109,0.802,3.971
0.621,0.464,3.771
0.902,-0.041,3.224
0.902,-0.041,3.224
-0.005,-0.613,1.264
-0.933,-0.4,0.576
-1.691,-0.367,-0.34
-2.119,-0.514,-1.392
-2.337,-0.421,-2.196
-2.382,-0.304,-2.878
-2.034,-0.27,-3.433
-1.454,-0.433,-3.986
-0.687,-0.563,-4.425
-0.199,-0.71,-4.84
0.03,-0.702,-5.167
0.158,-0.809,-5.47
0.279,-0.959,-5.797
0.143,-1.106,-6.09
-0.019,-1.108,-6.433
-0.201,-1.133,-6.77
-0.355,-1.203,-6.997
-0.402,-1.296,-7.216
-0.411,-1.341,-7.387
-0.385,-1.403,-7.427
-0.309,-1.477,-7.48
-0.277,-1.444,-7.452
-0.181,-1.378,-7.379
-0.158,-1.33,-7.302
-0.178,-1.276,-7.226
-0.279,-1.175,-6.933
-0.413,-1.025,-6.517
-0.556,-0.804,-6.183
-0.694,-0.542,-5.695
-0.785,-0.276,-5.235
-0.904,0.038,-4.642
-0.971,0.316,-3.886
-0.985,0.546,-3.112
-0.836,0.747,-2.205
-0.572,1.023,-1.268
-0.237,1.316,-0.141
0.191,1.542,0.809
0.589,1.71,1.787
1.041,1.736,2.454
1.42,1.886,3.111
1.657,1.972,3.613
1.944,1.935,3.906
2.144,1.881,4.303
2.392,1.732,4.589
2.479,1.514,4.897
2.336,1.457,5.274
2.082,1.458,5.393
1.677,1.486,5.406
1.339,1.509,5.148
1.157,1.551,4.647
1.124,1.502,4.138
1.265,1.485,3.629
1.467,1.365,3.275
1.802,1.173,3.129
2.156,0.909,3.088
2.501,0.589,3.235
2.77,0.224,3.552
3.136,-0.367,3.764
3.39,-0.82,3.773
3.192,-1.099,3.459
2.628,-1.132,2.731
1.745,-0.91,1.768
1.036,-0.777,0.784
0.553,-0.752,-0.354
0.192,-0.565,-1.406
-0.087,-0.366,-2.283
-0.065,-0.382,-3.098
0.125,-0.51,-3.624
0.369,-0.693,-4.091
0.607,-0.906,-4.432
0.665,-1.092,-4.674
0.525,-1.232,-4.921
0.202,-1.471,-5.153
0.202,-1.471,-5.153
-0.239,-1.764,-5.565
-0.352,-1.826,-5.69
-0.47,-1.943,-6.096
-0.491,-1.931,-6.211
-0.491,-1.931,-6.211
-0.875,-2.063,-6.53
-0.875,-2.063,-6.53
-0.945,-2.019,-6.417
-1.128,-1.898,-6.017
-1.128,-1.898,-6.017
-1.256,-1.816,-5.793
-1.256,-1.816,-5.793
-1.576,-1.404,-5.432
-1.804,-0.813,-5.102
-1.804,-0.813,-5.102
-1.86,-0.16,-4.633
-1.86,-0.16,-4.633
-1.941,0.2,-4.249
-2.203,0.989,-3.417
-2.203,0.989,-3.417
-1.851,1.654,-2.479
-1.851,1.654,-2.479
-1.519,1.939,-1.974
-0.6,2.268,-0.756
-0.6,2.268,-0.756
0.6,2.336,0.531
0.6,2.336,0.531
1.264,2.14,1.192
2.151,1.604,2.563
2.151,1.604,2.563
1.801,1.225,3.618
1.801,1.225,3.618
1.315,1.297,3.928
0.431,1.571,4.281
0.431,1.571,4.281
0.317,1.478,4.159
0.317,1.478,4.159
0.385,1.538,3.991
0.91,1.393,3.641
0.91,1.393,3.641
0.949,1.447,3.392
0.949,1.447,3.392
0.73,1.088,3.48
0.558,0.652,3.415
0.262,0.226,3.314
-0.042,-0.091,3.308
-0.319,-0.462,3.337
-0.362,-1.021,3.634
-0.362,-1.021,3.634
-0.207,-1.806,4.105
0.125,-2.966,4.983
0.119,-3.41,5.054
-0.125,-3.647,4.857
-0.489,-3.665,4.289
-0.865,-3.639,3.453
-1.013,-3.704,2.468
-1.045,-3.776,1.361
-0.897,-3.804,0.424
-0.677,-3.88,-0.397
-0.42,-3.981,-1.056
-0.251,-4.048,-1.549
-0.243,-4.067,-1.904
-0.038,-3.785,-2.266
-0.291,-3.94,-2.689
-0.726,-3.754,-3.355
-0.965,-3.49,-3.764
-1.063,-3.382,-4.309
-1.107,-3.185,-4.843
-1.067,-2.911,-5.279
-1.015,-2.579,-5.581
-1.003,-2.166,-5.804
-0.979,-1.762,-5.891
-0.797,-1.533,-6.091
-0.596,-1.528,-6.376
-0.497,-1.387,-6.478
-0.548,-0.998,-6.513
-0.54,-0.907,-6.546
-0.54,-0.907,-6.546
-0.71,-0.518,-6.34
-0.869,-0.047,-6.077
-0.89,0.32,-5.793
-0.835,0.519,-5.507
-0.821,0.703,-5.193
-0.915,0.857,-4.72
-1.009,0.971,-4.278
-1.219,1.117,-3.854
-1.362,1.219,-3.399
-1.486,1.285,-2.954
-1.567,1.362,-2.61
-1.712,1.369,-2.16
-1.942,1.433,-1.78
-2.2,1.669,-1.451
-2.388,1.898,-0.954
-2.377,2.014,-0.554
-2.171,2.007,-0.161
-1.976,2.034,-0.001
-1.905,2.13,0.208
-1.783,2.135,0.326
-1.699,1.992,0.477
-1.669,1.813,0.553
-1.74,1.674,0.708
-1.808,1.629,0.701
-1.792,1.544,0.475
-1.797,1.75,0.775
-1.773,1.777,1.124
-1.621,1.288,1.322
-1.442,0.937,1.297
-1.694,0.909,1.108
-1.998,0.864,1.047
-2.283,0.8,0.989
-2.548,0.891,0.974
-2.812,0.925,0.99
-2.896,0.919,1.019
-2.825,0.866,0.999
-2.603,0.784,0.949
-2.235,0.58,0.832
-1.817,0.396,0.728
-1.279,0.158,0.625
-0.69,-0.044,0.518
-0.125,-0.19,0.405
0.277,-0.283,0.334
0.627,-0.372,0.118
0.64,-0.293,0.108
0.45,-0.192,0.26
0.377,0.03,0.191
0.27,0.292,0.319
0.226,0.378,0.642
0.394,0.395,1.154
0.627,0.485,1.775
1.357,0.561,2.441
2.465,0.183,3.134
3.38,-0.401,4.135
4.298,-0.978,4.829
5.03,-1.513,5.048
5.238,-1.863,5.408
4.716,-1.996,5.747
3.591,-1.769,6.038
2.646,-1.526,6.442
2.312,-1.541,6.42
2.34,-1.644,5.85
2.518,-1.485,5.231
2.751,-1.336,4.296
2.971,-1.367,2.997
3.09,-1.405,1.466
3.127,-1.376,-0.036
3.115,-1.393,-1.511
2.992,-1.499,-2.836
2.64,-1.61,-3.808
2.185,-1.697,-4.551
1.508,-1.751,-5.087
0.775,-1.759,-5.417
0.089,-1.74,-5.558
-0.538,-1.684,-5.57
-0.947,-1.717,-5.624
-1.218,-1.742,-5.584
-1.426,-1.69,-5.521
-1.758,-1.522,-5.458
-1.998,-1.388,-5.592
-2.135,-1.36,-5.793
-2.284,-1.284,-6.028
-2.404,-1.127,-6.245
-2.461,-0.99,-6.42
-2.463,-0.903,-6.558
-2.335,-0.815,-6.565
-2.335,-0.748,-6.06
-2.339,-0.698,-5.117
-2.099,-0.945,-3.894
-1.482,-1.034,-0.521
-1.482,-1.034,-0.521
-1.32,-0.905,0.495
-1.387,-0.563,1.186
-1.387,-0.563,1.186
-0.993,-0.949,2.49
-1.074,-0.903,2.707
-1.379,-0.731,2.224
-1.514,-0.586,2.015
-1.644,-0.355,1.764
-1.669,-0.148,1.284
-1.397,0.01,0.746
-1.06,0.276,0.277
-0.756,0.55,-0.003
-0.463,0.803,-0.334
-0.265,1.081,-0.612
0,1.176,-0.943
0,1.176,-0.943
0.105,1.543,-1.337
0.078,1.87,-1.109
0.078,1.87,-1.109
0.034,1.936,-0.611
0.034,1.936,-0.611
0.259,1.943,-0.334
0.422,1.898,-0.194
0.422,1.898,-0.194
1.004,1.935,-0.923
1.188,1.943,-1.582
1.188,1.943,-1.582
1.159,1.759,-1.863
1.159,1.759,-1.863
0.93,1.587,-1.909
0.613,1.337,-1.28
0.258,0.429,-1.2
-1.468,-1.155,0.4
-1.468,-1.155,0.4
-2.268,-1.41,2.001
-2.758,-1.625,3.326
-2.597,-1.747,4.639
-1.765,-2.013,5.937
-0.756,-2.353,6.777
0.057,-2.634,6.993
0.047,-2.627,6.225
0.047,-2.627,6.225
-1.264,-2.515,4.439
-1.264,-2.515,4.439
-1.648,-2.451,3.543
-1.562,-2.125,2.747
-1.562,-2.125,2.747
-0.588,-1.803,2.335
-0.588,-1.803,2.335
-0.178,-1.642,2.063
0.328,-1.716,0.794
0.328,-1.716,0.794
0.179,-1.878,-0.797
0.179,-1.878,-0.797
-0.13,-1.862,-1.349
-0.597,-1.815,-2.024
-0.597,-1.815,-2.024
-0.589,-1.781,-2.244
-0.5,-1.776,-2.224
-0.334,-1.606,-2.55
-0.123,-1.638,-3.11
0.025,-1.65,-3.724
-0.032,-1.502,-4.147
-0.18,-1.353,-4.652
-0.334,-1.298,-5.107
-0.604,-1.25,-5.302
-1.032,-1.156,-5.582
-1.477,-0.951,-5.839
-1.763,-0.76,-6.107
-1.859,-0.626,-6.245
-1.908,-0.505,-6.233
-1.978,-0.373,-6.103
-1.996,-0.215,-5.857
-2.019,-0.113,-5.453
-2.03,0.096,-5.18
-1.983,0.405,-4.965
-2.001,0.605,-4.768
-1.944,0.829,-4.557
-1.825,0.946,-4.364
-1.751,1.138,-4.005
-1.706,1.214,-3.543
-1.715,1.2,-3.018
-1.823,1.23,-2.366
-1.88,1.253,-1.502
-1.892,1.155,-0.632
-1.711,1.049,0.211
-1.291,0.905,0.894
-0.86,0.87,1.476
-0.679,0.869,2.164
-0.648,0.973,2.674
-0.705,1.046,3.119
-0.693,1.079,3.351
-0.581,1.119,3.242
-0.498,1.263,2.898
-0.298,1.308,2.22
0.042,1.189,1.723
0.45,1.121,1.408
0.781,1.069,1.052
1.159,0.804,0.843
1.413,0.53,0.68
1.635,0.208,0.478
1.837,-0.046,0.125
1.607,0.121,-0.121
1.157,0.392,-0.559
0.916,0.489,-0.844
0.834,0.392,-1.018
0.813,0.396,-1.175
0.901,0.428,-1.236
1.161,0.346,-1.489
1.454,0.267,-1.661
1.684,0.192,-1.848
1.846,0.198,-2.208
1.782,0.242,-2.553
1.713,0.222,-3.05
1.609,0.004,-3.484
1.662,-0.103,-3.855
1.575,-0.105,-3.775
1.358,-0.285,-3.626
1.191,-0.501,-3.638
0.82,-0.636,-3.389
0.392,-0.632,-3.279
0.125,-0.642,-3.202
-0.07,-0.628,-3.036
-0.226,-0.547,-2.869
-0.371,-0.411,-2.763
-0.392,-0.213,-2.739
-0.344,-0.059,-2.528
-0.26,0.015,-2.149
-0.144,0.095,-1.948
-0.02,0.19,-1.722
0.007,0.278,-1.477
-0.112,0.421,-1.162
-0.324,0.6,-0.775
-0.503,0.703,-0.437
-0.551,0.791,0.033
-0.529,0.834,0.374
-0.335,0.947,0.773
-0.11,1.07,1.081
0.043,1.255,1.571
0.218,1.232,1.925
0.332,1.153,2.314
0.392,1.06,2.689
0.407,0.978,3.066
0.373,0.825,3.407
0.172,0.749,3.707
-0.134,0.746,3.975
-0.425,0.692,4.095
-0.761,0.668,4.22
-1.1,0.683,4.337
-1.464,0.747,4.494
-1.674,0.644,4.719
-1.737,0.285,4.833
-1.665,-0.18,4.79
-1.43,-0.608,4.547
-1.117,-0.998,4.114
-0.873,-1.338,3.652
-0.589,-1.809,3.199
-0.496,-2.211,2.676
-0.829,-2.385,2.006
-1.53,-2.164,1.334
-2.065,-2.049,0.741
-2.372,-2.106,-0.045
-2.787,-1.772,-0.65
-2.807,-1.489,-1.114
-2.529,-1.548,-1.736
-2.121,-1.672,-2.204
-1.652,-1.692,-2.697
-1.203,-1.71,-3.193
-0.913,-1.767,-3.567
-0.803,-1.781,-3.959
-0.809,-1.837,-4.299
-0.853,-1.743,-4.577
-0.829,-1.738,-4.971
-0.74,-1.656,-5.292
-0.631,-1.567,-5.564
-0.513,-1.397,-5.815
-0.466,-1.217,-5.979
-0.353,-1.088,-5.946
-0.323,-0.914,-5.61
-0.083,-1.102,-6.113
0.216,-1.046,-6.178
0.399,-0.78,-5.969
0.339,-0.593,-5.833
0.211,-0.533,-5.779
0.134,-0.459,-5.465
0.165,-0.231,-4.864
0.165,-0.231,-4.864
0.115,-0.083,-4.418
-0.07,0.21,-3.282
-0.07,0.21,-3.282
-0.008,0.392,-1.789
-0.008,0.392,-1.789
0.123,0.334,-1.005
0.278,0.275,-0.272
0.34,0.26,0.264
0.561,0.29,1.369
0.812,0.325,1.814
0.812,0.325,1.814
1.135,0.304,2.052
1.549,0.281,2.386
2.053,0.341,3.107
2.347,0.213,3.706
2.569,0.048,4.251
2.656,-0.13,4.636
2.578,-0.257,4.861
2.352,-0.337,4.849
2.092,-0.219,4.612
1.913,-0.137,4.259
2.016,-0.069,3.834
2.241,-0.102,3.439
2.552,-0.269,3.195
2.796,-0.481,2.906
2.796,-0.481,2.906
2.726,-0.662,3.069
2.726,-0.662,3.069
2.509,-1.118,3.048
2.153,-1.05,2.894
2.153,-1.05,2.894
1.643,-0.878,2.385
1.196,-0.726,1.817
0.67,-0.435,0.42
0.425,-0.19,-0.275
0.425,-0.19,-0.275
0.392,-0.147,-1.6
0.392,-0.147,-1.6
0.164,-0.213,-2.543
-0.011,-0.2,-3.008
-0.011,-0.2,-3.008
-0.264,-0.109,-3.702
-0.264,-0.109,-3.702
-0.473,-0.147,-4.057
-0.925,-0.259,-4.824
-0.925,-0.259,-4.824
-1.174,-0.303,-5.269
-1.174,-0.303,-5.269
-1.624,-0.312,-5.449
-1.813,-0.298,-5.517
-1.813,-0.298,-5.517
-1.874,-0.261,-5.569
-1.796,-0.233,-5.456
-1.356,-0.17,-4.802
-1.215,-0.024,-4.59
-1.215,-0.024,-4.59
-1.274,0.337,-4.016
-1.274,0.337,-4.016
-1.541,0.463,-3.468
-1.856,0.587,-3.328
-2.127,0.648,-3.647
-2.206,0.828,-3.132
-2.351,1.079,-3.033
-2.275,1.379,-3.083
-2.055,1.78,-2.712
-1.651,1.908,-2.257
-1.3,1.983,-1.746
-0.995,2.131,-1.24
-0.778,2.143,-0.551
-0.72,2.097,0.422
-0.745,1.949,1.709
-0.987,1.759,2.816
-1.151,1.524,3.87
-1.409,1.41,4.783
-1.742,1.237,5.601
-1.957,1.122,5.882
-2.067,1.015,5.857
-2.152,1.149,5.531
-2.288,1.263,4.899
-2.058,1.143,4.358
-2.005,1.212,3.71
-1.971,1.213,3.257
-1.886,1.075,3.184
-1.682,0.793,3.349
-1.418,0.45,3.39
-1.25,0.047,3.357
-1.222,-0.361,3.392
-1.199,-0.84,3.29
-1.259,-1.257,3.143
-1.259,-1.257,3.143
-1.57,-1.564,2.695
-2.15,-1.823,1.445
-2.471,-1.731,0.649
-2.555,-1.715,-0.339
-2.646,-1.729,-1.309
-2.584,-1.707,-2.001
-2.615,-1.426,-2.634
-2.48,-1.254,-3.246
-2.163,-1.281,-3.583
-1.786,-1.345,-3.738
-1.287,-1.451,-3.898
-0.866,-1.472,-4.092
-0.546,-1.492,-4.205
-0.342,-1.362,-4.405
-0.212,-1.392,-4.641
-0.161,-1.42,-4.991
-0.161,-1.374,-5.338
-0.135,-1.333,-5.739
-0.065,-1.277,-6.223
0.048,-1.208,-6.621
0.166,-1.177,-6.725
0.213,-1.193,-6.771
0.262,-1.214,-6.73
0.225,-1.259,-6.563
0.18,-1.126,-6.378
0.238,-1.139,-6.057
0.285,-1.086,-5.737
0.2,-0.928,-5.389
0.165,-0.803,-5.166
0.067,-0.708,-4.951
-0.13,-0.579,-4.73
-0.374,-0.378,-4.46
-0.63,-0.149,-4.378
-0.761,0.066,-4.142
-0.863,0.316,-3.773
-0.891,0.629,-3.332
-0.794,0.758,-2.822
-0.614,0.943,-1.996
-0.267,1.112,-1.066
0.228,1.227,0.003
0.768,1.314,1.096
1.297,1.327,2.125
1.623,1.395,3.173
1.892,1.392,4.214
2.058,1.341,5.168
2.075,1.352,6.057
2.11,1.309,6.711
2.226,1.2,7.033
2.318,1.152,7.085
2.494,1.125,6.936
2.573,1.128,6.564
2.595,1.148,6.006
2.557,1.137,5.41
2.554,1.095,4.83
2.562,1.008,4.381
2.625,0.757,4.055
2.577,0.483,3.73
2.514,0.323,3.366
2.351,0.159,2.874
2.159,0.061,2.282
1.986,-0.046,1.649
1.774,-0.109,0.956
1.531,-0.143,0.081
1.272,-0.159,-0.876
0.953,-0.097,-1.966
0.668,-0.035,-3.04
0.486,0.026,-4.15
0.326,0.144,-5.135
0.287,0.208,-5.952
0.419,0.175,-6.635
0.565,0.131,-7.007
0.79,0.069,-7.147
0.964,-0.111,-7.149
1.044,-0.304,-7.004
0.981,-0.484,-6.83
0.815,-0.61,-6.626
0.623,-0.765,-6.516
0.41,-0.912,-6.318
0.075,-1.021,-6.135
-0.301,-1.043,-6.006
-0.613,-1.084,-5.852
-0.901,-1.115,-5.712
-1.176,-1.088,-5.521
-1.418,-1.069,-5.382
-1.63,-0.969,-5.2
-1.732,-0.867,-4.991
-1.716,-0.799,-4.824
-1.689,-0.712,-4.691
-1.661,-0.576,-4.704
-1.625,-0.414,-4.527
-1.635,-0.281,-4.319
-1.619,-0.101,-3.98
-1.693,0.038,-3.596
-1.751,0.256,-3.014
-1.745,0.391,-2.324
-1.706,0.513,-1.47
-1.619,0.627,-0.492
-1.184,0.819,2.135
-1.184,0.819,2.135
-0.798,0.864,3.818
-0.171,0.711,5.524
0.328,0.522,7.17
0.387,0.326,9.172
0.387,0.326,9.172
-0.054,0.402,9.608
-0.743,0.531,9.643
-1.301,0.606,9.256
-2.229,0.77,7.884
-2.229,0.77,7.884
-2.692,1.13,6.485
-2.692,1.13,6.485
-2.469,1.191,5.689
-2.105,1.125,5.022
-1.862,1.038,4.501
-1.004,0.888,4.072
-0.453,0.756,3.787
-0.096,0.523,3.518
0.506,0.112,3.277
0.629,-0.314,2.687
0.141,-0.698,1.196
0.141,-0.698,1.196
-0.631,-0.798,-0.138
-1.299,-0.799,-1.959
-1.299,-0.799,-1.959
-1.794,-0.775,-3.955
-1.794,-0.775,-3.955
-1.925,-0.643,-4.776
-1.571,-0.648,-5.926
-1.571,-0.648,-5.926
-1.184,-0.331,-6.266
-1.184,-0.331,-6.266
-1.211,-0.215,-6.487
-0.144,-1.059,-7.145
-0.144,-1.059,-7.145
0.086,-1.384,-7.732
0.086,-1.384,-7.732
0.127,-1.603,-7.815
-0.222,-1.191,-7.91
-0.222,-1.191,-7.91
-0.482,-1.341,-8.595
-0.436,-1.468,-8.832
-0.375,-1.576,-8.837
-0.375,-1.576,-8.837
-0.34,-1.567,-8.84
-0.627,-1.268,-7.511
-0.676,-1.235,-6.818
-0.676,-1.235,-6.818
-0.731,-1.305,-5.32
-0.755,-1.308,-4.779
-0.757,-1.123,-4.338
-0.654,-0.95,-4.006
-0.654,-0.95,-4.006
-0.733,-0.369,-3.103
-0.733,-0.369,-3.103
-0.666,0.242,-2.159
-0.666,0.242,-2.159
-0.603,0.5,-1.662
-0.447,1.057,-0.811
-0.328,1.401,0
-0.335,1.569,1.314
-0.279,1.641,2.532
-0.321,1.674,3.608
-0.221,1.613,4.597
-0.162,1.354,5.391
-0.097,1.291,6.422
-0.097,1.291,6.422
0.289,1.194,6.827
0.788,1.015,6.834
1.346,0.827,6.434
1.678,0.733,6.109
1.852,0.735,5.756
2.111,0.663,5.372
2.254,0.545,4.856
2.329,0.416,4.451
2.277,0.173,4.167
2.107,-0.036,3.87
1.922,-0.289,3.398
1.74,-0.503,2.777
1.642,-0.678,2.056
1.472,-0.77,1.264
1.336,-0.788,0.361
1.135,-0.793,-0.47
0.952,-0.81,-1.319
0.667,-0.771,-2.067
0.403,-0.754,-2.74
0.17,-0.707,-3.396
0.129,-0.589,-3.95
0.182,-0.602,-4.467
0.228,-0.655,-4.96
0.177,-0.663,-5.387
0.013,-0.644,-5.528
-0.151,-0.598,-5.741
-0.277,-0.695,-5.88
-0.336,-0.772,-5.834
-0.293,-0.857,-5.664
-0.274,-0.856,-5.605
-0.242,-0.86,-5.579
-0.216,-0.874,-5.675
-0.222,-0.902,-5.651
-0.329,-0.884,-5.584
-0.431,-0.738,-5.475
-0.486,-0.576,-5.314
-0.459,-0.495,-5.147
-0.479,-0.34,-4.801
-0.489,-0.098,-4.439
-0.431,0.115,-4.11
-0.437,0.302,-3.943
-0.317,0.358,-3.733
0.061,0.082,-3.369
0.272,0.068,-2.938
0.455,0.183,-2.416
0.47,0.354,-1.937
0.47,0.354,-1.937
0.316,0.737,-0.595
0.33,0.876,0.062
0.417,0.973,0.521
0.377,1.175,0.678
0.471,1.294,0.635
0.588,1.201,0.715
0.736,1.091,1.045
0.75,1.033,1.501
0.708,0.941,2.019
0.632,0.842,2.641
0.539,0.753,3.26
0.384,0.74,3.816
0.203,0.636,4.127
0.064,0.545,4.469
0.003,0.516,4.82
-0.002,0.365,5.041
0.038,0.211,5.044
-0.189,0.215,4.884
-0.479,0.34,4.677
-0.847,0.358,4.224
-1.167,0.312,3.633
-1.362,0.234,3.071
-1.582,0.106,2.668
-1.726,-0.022,2.534
-1.623,-0.165,2.808
-1.375,-0.548,3.057
-0.983,-1.038,3.126
-0.697,-1.573,3.046
-0.541,-2.037,2.961
-0.777,-2.197,2.641
-1.405,-2.11,1.881
-2.013,-2.035,0.826
-2.337,-2.046,-0.041
-2.859,-1.727,-0.946
-3.257,-1.408,-1.843
-3.427,-1.195,-2.582
-3.397,-1.042,-3.117
-3.084,-1.128,-3.521
-2.584,-1.454,-3.63
-2.008,-1.615,-3.538
-1.696,-1.67,-3.262
-1.464,-1.653,-2.981
-1.232,-1.586,-2.925
-1.234,-1.527,-3.086
-1.304,-1.412,-3.39
-1.386,-1.335,-3.769
-1.384,-1.239,-4.252
-1.441,-1.155,-4.805
-1.428,-1.077,-5.301
-1.347,-0.977,-5.582
-1.256,-0.956,-5.716
-1.094,-0.952,-5.789
-0.894,-0.95,-5.751
-0.693,-0.886,-5.686
-0.478,-0.891,-5.58
-0.364,-0.786,-5.356
-0.296,-0.576,-5.143
-0.268,-0.42,-4.965
-0.243,-0.321,-4.695
-0.242,-0.197,-4.368
-0.333,0.016,-4.059
-0.401,0.181,-3.839
-0.472,0.362,-3.572
-0.527,0.573,-3.203
-0.571,0.782,-2.871
-0.62,0.962,-2.62
-0.571,1.167,-2.376
-0.564,1.358,-2.088
-0.397,1.441,-1.652
-0.085,1.493,-1.038
0.06,1.422,-0.239
0.24,1.403,0.484
0.24,1.403,0.484
0.568,1.225,1.708
0.562,1.158,2.317
0.512,1.074,2.865
0.447,0.899,3.47
0.395,0.75,4.028
0.516,0.664,4.589
0.723,0.659,4.946
1.008,0.533,5.234
1.403,0.331,5.483
1.622,0.144,5.663
1.802,0.038,5.679
1.862,0.046,5.507
1.831,0.083,5.167
1.789,0.248,4.517
1.739,0.244,4.15
1.739,0.244,4.15
1.869,0.363,3.333
2.112,0.318,3.1
2.602,0.288,2.97
3.149,0.143,3.005
3.413,0.006,2.915
4.081,-0.593,3.193
4.081,-0.593,3.193
4.844,-1.63,3.442
4.427,-2.211,2.792
3.437,-2.172,2.344
2.277,-2.003,1.737
0.801,-2.199,0.303
0.801,-2.199,0.303
0.262,-2.093,-0.521
0.001,-1.979,-1.26
-0.015,-1.91,-2.017
0.523,-1.982,-3.365
0.523,-1.982,-3.365
0.433,-1.879,-4.017
0.433,-1.879,-4.017
0.329,-1.877,-4.382
0.214,-1.863,-4.575
0.123,-1.874,-4.838
-0.23,-1.847,-5.259
-0.23,-1.847,-5.259
-0.454,-1.72,-5.504
-0.749,-1.525,-6.126
-0.749,-1.525,-6.126
-0.852,-1.398,-6.336
-0.941,-1.258,-6.511
-0.978,-1.09,-6.704
-0.881,-0.81,-6.766
-0.881,-0.81,-6.766
-0.676,-0.847,-6.786
-0.676,-0.847,-6.786
-0.627,-0.778,-6.659
-0.553,-0.515,-6.006
-0.553,-0.515,-6.006
-0.405,-0.265,-5.176
-0.405,-0.265,-5.176
-0.336,-0.16,-4.732
-0.246,0.264,-3.929
-0.246,0.264,-3.929
-0.175,0.452,-3.547
-0.154,0.615,-3.123
-0.141,0.763,-2.659
-0.115,0.854,-2.118
-0.19,0.822,-1.241
-0.347,0.784,-0.565
-0.503,0.703,-0.014
-0.712,0.568,0.534
-0.712,0.568,0.534
-0.968,0.465,1.019
-1.221,0.481,1.615
-1.186,0.484,1.914
-1.125,0.522,2.127
-1.069,0.59,2.263
-0.939,0.684,2.306
-0.865,0.753,2.233
-0.848,0.774,2.273
-0.964,0.758,2.443
-1.165,0.836,2.621
-1.429,0.914,2.675
-1.653,0.951,2.597
-1.929,0.962,2.595
-2.117,0.998,2.576
-2.03,0.81,2.413
-1.739,0.581,2.053
-1.614,0.526,1.563
-1.582,0.783,1.223
-1.673,0.894,1.058
-1.904,0.85,1.026
-2.19,0.863,1.182
-2.535,0.925,1.249
-2.686,0.914,1.269
-2.54,0.721,1.411
-2.003,0.273,1.643
-1.215,-0.281,1.963
-0.538,-0.577,2.294
-0.038,-0.892,2.574
0.506,-1.477,3.095
0.609,-1.978,3.4
0.174,-2.22,3.354
-0.707,-2.156,3.115
-1.429,-2.065,2.515
-1.714,-2.115,1.684
-1.896,-1.909,0.733
-1.913,-1.642,-0.209
-1.691,-1.457,-0.93
-1.282,-1.457,-1.591
-0.796,-1.496,-2.058
-0.487,-1.43,-2.316
-0.328,-1.263,-2.357
-0.211,-1.111,-2.305
-0.181,-0.959,-2.271
-0.227,-0.818,-2.292
-0.305,-0.649,-2.317
-0.393,-0.564,-2.314
-0.479,-0.461,-2.223
-0.45,-0.329,-2.119
-0.326,-0.264,-1.999
-0.043,-0.18,-1.806
0.164,-0.054,-1.682
0.346,0.149,-1.765
0.446,0.364,-1.887
0.532,0.575,-2.002
0.439,0.8,-2.131
0.358,0.995,-2.147
0.282,1.007,-2.045
0.183,0.974,-1.826
0.059,0.969,-1.667
-0.011,0.865,-1.534
-0.153,0.794,-1.407
-0.288,0.741,-1.261
-0.379,0.688,-1.251
-0.468,0.557,-1.148
-0.576,0.373,-1.094
-0.668,0.217,-1.071
-0.754,0.101,-1.015
-0.781,-0.041,-1.047
-0.76,-0.208,-1.039
-0.759,-0.332,-0.948
-0.751,-0.397,-0.975
-0.782,-0.504,-1.056
-0.813,-0.549,-0.946
-0.824,-0.509,-0.852
-0.839,-0.577,-0.677
-0.801,-0.598,-0.403
-0.674,-0.602,-0.043
-0.536,-0.604,0.123
-0.68,-0.389,0.268
-0.836,-0.099,0.524
-0.864,-0.07,0.772
-0.891,-0.014,0.953
-0.783,0.004,0.817
-0.483,0.01,0.775
0.227,0.005,0.7
1.334,-0.22,0.839
2.639,-0.565,1.355
3.541,-1.012,1.979
4.229,-1.651,3.222
4.362,-2.486,4.512
3.74,-3.058,5.771
2.334,-3.187,5.989
0.492,-2.566,5.712
-0.752,-2.191,5.074
-1.51,-1.917,4.057
-1.713,-1.648,2.979
-1.842,-1.253,2.178
-1.781,-0.83,1.062
-1.459,-0.505,-0.069
-0.807,-0.249,-1.4
0.063,-0.154,-2.523
0.93,-0.156,-3.431
1.532,-0.058,-4.018
2.032,-0.011,-4.331
2.327,-0.081,-4.215
2.308,-0.234,-3.71
1.931,-0.398,-3.003
1.441,-0.688,-2.314
0.788,-0.946,-1.667
0.026,-1.017,-1.059
-0.638,-1.108,-0.609
-1.263,-1.183,-0.41
-1.725,-1.13,-0.525
-2.046,-1.02,-0.783
-2.109,-0.853,-1.192
-2.126,-0.682,-1.735
-2.162,-0.409,-2.267
-2.119,-0.326,-2.646
-2.055,-0.229,-2.788
-2.063,-0.208,-2.815
-2.113,0.012,-2.679
-2.113,0.012,-2.679
-2.112,0.142,-2.36
-2.005,0.287,-2.076
-1.811,0.408,-1.735
-1.262,0.592,-0.934
-1.262,0.592,-0.934
-1.067,0.688,-0.523
-1.001,0.856,0.007
-0.951,1.052,0.504
-0.761,1.246,1.638
-0.761,1.246,1.638
-0.822,1.387,2.115
-0.83,1.652,3.342
-0.83,1.652,3.342
-0.712,1.785,3.808
-0.769,2.07,4.393
-0.874,2.318,4.44
-0.874,2.318,4.44
-0.96,2.652,4.22
-0.882,2.673,4.087
-0.595,2.729,3.979
-0.319,2.591,3.978
0.687,2.004,4.469
1.128,1.672,4.634
1.861,1.044,5.106
2.734,-0.199,5.888
2.857,-0.866,5.984
2.676,-1.177,5.597
1.861,-1.391,4.673
0.652,-1.259,3.397
-0.079,-1.34,2.159
-0.619,-1.294,0.704
-0.896,-1.058,-0.644
-0.883,-0.865,-1.905
0.275,-1.102,-3.551
0.275,-1.102,-3.551
1.251,-1.296,-4.315
1.399,-1.308,-4.505
1.399,-1.308,-4.505
1.05,-1.57,-4.779
1.05,-1.57,-4.779
0.072,-1.705,-5.421
-0.333,-1.799,-5.748
-0.333,-1.799,-5.748
-0.799,-1.998,-6.864
-0.799,-1.998,-6.864
-1.164,-1.877,-7.94
-1.164,-1.877,-7.94
-1.17,-1.872,-8.375
-1.111,-1.752,-8.908
-1.111,-1.752,-8.908
-1.213,-1.582,-9.111
-1.213,-1.582,-9.111
-1.235,-1.426,-8.902
-1.27,-1.366,-8.618
-1.27,-1.366,-8.618
-1.695,-1.101,-8.287
-1.695,-1.101,-8.287
-1.908,-0.962,-8.168
-2.083,-0.712,-8.064
-2.364,-0.25,-7.508
-2.353,0.082,-6.951
-2.308,0.275,-6.364
-2.192,0.486,-5.512
-1.972,0.751,-4.541
-1.84,0.961,-3.421
-1.638,1.209,-2.314
-1.45,1.374,-1.127
-1.13,1.565,0.127
-0.765,1.742,1.324
-0.079,1.952,2.63
0.762,2.038,3.833
1.646,1.887,5.205
2.35,1.548,6.394
2.821,1.318,7.323
2.994,1.23,7.866
3.018,1.261,8.209
2.994,1.306,8.394
2.994,1.306,8.394
2.803,1.218,7.383
2.599,1.378,6.427
2.328,1.481,5.272
2.041,1.582,4.007
1.796,1.838,2.881
1.671,2.157,2.03
1.872,2.122,1.592
2.278,1.84,1.42
2.697,1.469,1.362
2.963,1.173,1.538
3.088,0.812,1.885
3.266,0.235,2.111
3.343,-0.462,2.146
3.162,-0.945,2.184
2.834,-1.277,2.043
2.243,-1.439,1.659
1.502,-1.522,0.898
0.831,-1.579,0.011
0.361,-1.704,-0.83
-0.106,-1.66,-1.788
-0.462,-1.592,-2.842
-0.554,-1.556,-3.793
-0.442,-1.616,-4.652
-0.182,-1.717,-5.432
-0.032,-1.825,-6.077
0.044,-1.86,-6.54
0.078,-1.909,-6.771
0.018,-2.016,-6.828
-0.217,-2.096,-6.781
-0.516,-2.134,-6.714
-0.755,-2.143,-6.632
-0.963,-2.11,-6.408
-1.109,-2.088,-6.06
-1.338,-2.036,-5.532
-1.424,-1.995,-5.177
-1.53,-1.999,-4.91
-1.635,-1.953,-4.683
-1.792,-1.852,-4.421
-1.876,-1.747,-4.204
-1.824,-1.563,-4.048
-1.767,-1.375,-3.735
-1.803,-1.177,-3.344
-1.807,-0.881,-2.981
-1.735,-0.602,-2.555
-1.562,-0.329,-2.057
-1.359,-0.05,-1.612
-1.179,0.189,-1.137
-1.028,0.356,-0.676
-0.967,0.572,-0.223
-1.065,0.77,0.273
-1.171,0.876,0.908
-1.14,0.894,1.399
-1.112,0.845,1.8
-1.099,0.874,2.221
-1.026,0.878,2.626
-0.923,0.888,3.125
-0.755,0.805,3.754
-0.691,0.648,4.457
-0.757,0.444,4.987
-0.923,0.232,5.382
-1.279,0.191,5.445
-1.72,0.307,5.25
-1.969,0.389,4.669
-2.039,0.469,4.149
-2.015,0.506,3.67
-1.784,0.498,3.391
-1.408,0.221,3.282
-0.94,-0.115,3.262
-0.536,-0.466,3.144
-0.189,-0.91,3.118
-0.031,-1.361,3.058
-0.198,-1.538,2.898
-0.612,-1.538,2.455
-1.271,-1.543,1.84
-1.902,-1.491,1.15
-2.253,-1.477,0.233
-2.724,-1.2,-0.718
-2.925,-0.966,-1.521
-2.868,-0.824,-2.362
-2.543,-0.752,-3.125
-2.17,-0.699,-3.723
-1.737,-0.73,-4.256
-1.457,-0.754,-4.583
-1.254,-0.75,-4.686
-1.214,-0.752,-4.565
-1.261,-0.727,-4.572
-1.291,-0.693,-4.611
-1.42,-0.668,-4.705
-1.474,-0.641,-4.805
-1.483,-0.644,-5.007
-1.407,-0.63,-5.263
-1.32,-0.613,-5.501
-1.257,-0.585,-5.683
-1.147,-0.531,-5.799
-0.965,-0.542,-5.715
-0.848,-0.597,-5.62
-0.744,-0.59,-5.397
-0.838,-0.54,-5.16
-0.851,-0.515,-4.748
-0.995,-0.442,-4.353
-1.126,-0.347,-3.978
-1.27,-0.255,-3.635
-1.415,-0.086,-3.106
-1.444,0.01,-2.519
-1.396,0.061,-2.027
-1.252,0.078,-1.631
-1.122,0.189,-1.322
-0.951,0.263,-1.047
-0.682,0.313,-0.676
-0.486,0.362,-0.168
-0.275,0.362,0.435
-0.205,0.324,1.191
-0.174,0.239,2.04
-0.109,0.068,2.852
-0.106,-0.117,3.615
-0.114,-0.241,4.212
-0.14,-0.384,4.724
-0.094,-0.537,5.137
0.054,-0.599,5.399
0.301,-0.639,5.637
0.628,-0.667,5.752
1.082,-0.796,5.656
1.45,-0.869,5.375
1.636,-0.742,4.924
1.733,-0.606,4.546
1.875,-0.643,4.262
2.143,-0.833,3.966
2.367,-0.961,3.708
2.469,-1.08,3.551
2.544,-1.373,3.274
2.426,-1.407,2.89
1.754,-1.151,1.705
1.754,-1.151,1.705
1.257,-0.7,0.248
0.979,-0.501,-0.576
0.899,-0.387,-1.403
0.85,-0.234,-2.211
0.859,-0.048,-2.849
0.966,0.076,-3.309
1.36,0.154,-3.799
1.36,0.154,-3.799
1.64,0.21,-4.297
1.64,0.21,-4.297
1.653,0.233,-4.762
1.295,0.326,-5.607
1.295,0.326,-5.607
1.119,0.319,-6.038
0.924,0.294,-6.367
0.666,0.393,-6.793
0.493,0.369,-6.736
0.493,0.369,-6.736
0.136,0.306,-6.415
-0.03,0.251,-6.11
-0.198,0.319,-5.803
-0.267,0.392,-5.468
-0.267,0.392,-5.468
-0.236,0.482,-4.712
-0.236,0.482,-4.712
-0.228,0.494,-4.39
-0.062,0.161,-3.936
-0.062,0.161,-3.936
-0.275,0.466,-2.715
-0.275,0.466,-2.715
-0.164,0.542,-1.512
-0.247,0.492,-0.988
-0.247,0.492,-0.988
-0.717,0.765,0.354
-0.717,0.765,0.354
-0.837,0.646,1.272
-0.683,0.516,1.805
-0.683,0.516,1.805
-0.462,0.191,2.482
-0.462,0.191,2.482
-0.74,0.125,3.061
-0.974,0.11,3.444
-0.974,0.11,3.444
-1.178,-0.119,3.894
-1.178,-0.119,3.894
-1.533,-0.509,4.547
-1.702,-0.572,4.552
-1.899,-0.566,4.477
-2.034,-0.612,4.463
-2.077,-0.648,4.412
-2.225,-0.769,4.245
-2.508,-0.895,4.136
-2.763,-1.108,3.978
-2.911,-1.373,3.896
-2.918,-1.516,3.768
-2.787,-1.485,3.717
-2.444,-1.566,3.461
-1.946,-1.754,3.124
-1.573,-1.926,2.63
-1.352,-2.014,2.001
-1.408,-2.039,1.969
-1.641,-1.954,1.289
-2.012,-1.807,0.315
-2.438,-1.712,-0.54
-2.714,-1.551,-1.164
-2.951,-1.374,-1.732
-3.039,-1.156,-2.231
-2.882,-0.786,-2.715
-2.574,-0.461,-3.189
-2.17,-0.312,-3.74
-1.83,-0.144,-4.057
-1.544,-0.175,-4.217
-1.427,-0.106,-4.251
-1.426,0.033,-4.359
-1.439,0.198,-4.636
-1.373,0.273,-4.909
-1.212,0.372,-5.1
-1.058,0.47,-5.368
-0.82,0.577,-5.601
-0.599,0.728,-5.771
-0.265,0.801,-5.949
0.015,0.831,-5.961
0.221,0.823,-6.033
0.289,0.827,-6.066
0.277,0.772,-6.152
0.25,0.639,-6.053
0.176,0.512,-5.883
0.061,0.437,-5.714
0.022,0.347,-5.436
0.024,0.251,-5.118
0.07,0.163,-4.727
0.106,0.193,-4.291
0.219,0.312,-3.755
0.171,0.528,-3.286
0.226,0.76,-2.764
0.282,0.842,-2.267
0.29,0.908,-1.738
0.319,0.909,-1.314
0.285,0.891,-0.888
0.249,0.912,-0.195
0.147,0.927,0.651
0.011,0.79,1.45
-0.011,0.597,2.308
0.072,0.326,3.184
0.32,0.115,4.115
0.649,-0.117,4.884
0.887,-0.187,5.36
1.126,-0.23,5.795
1.499,-0.262,6.021
1.894,-0.262,6.107
2.266,-0.36,5.91
2.598,-0.5,5.682
2.641,-0.503,5.487
2.435,-0.398,5.442
2.355,-0.363,5.472
2.476,-0.423,5.427
2.637,-0.61,5.287
2.719,-0.729,4.97
2.737,-0.738,4.497
2.566,-0.738,3.823
2.245,-0.572,2.784
1.884,-0.441,1.646
1.646,-0.287,0.374
1.428,-0.059,-0.716
1.213,0.158,-1.944
1.062,0.35,-2.638
1.018,0.497,-3.268
1.128,0.648,-3.846
1.215,0.618,-4.531
1.325,0.614,-4.93
1.17,0.653,-5.097
1.019,0.601,-5.161
0.872,0.512,-5.213
0.681,0.396,-5.277
0.463,0.223,-5.351
0.196,0.099,-5.375
0.022,-0.098,-5.381
-0.029,-0.219,-5.579
-0.117,-0.28,-6.001
-0.242,-0.285,-6.28
-0.313,-0.369,-6.349
-0.433,-0.38,-6.347
-0.526,-0.413,-6.27
-0.642,-0.473,-6.119
-0.766,-0.466,-5.962
-0.892,-0.431,-5.638
-1.068,-0.341,-5.185
-1.13,-0.325,-4.67
-1.266,-0.279,-4.072
-1.275,-0.264,-3.522
-1.311,-0.153,-3.241
-1.303,0.012,-2.955
-1.233,0.151,-2.676
-1.095,0.324,-2.294
-0.934,0.432,-1.845
-0.835,0.511,-1.368
-0.858,0.652,-0.793
-0.894,0.726,-0.251
-0.882,0.559,0.355
-0.88,0.33,1.114
-0.862,0.176,2.058
-0.94,-0.008,3.15
-0.98,-0.27,4.304
-0.908,-0.616,5.175
-0.94,-0.881,5.868
-1.038,-1.043,6.306
-1.404,-1.012,6.499
-1.846,-0.95,6.41
-2.177,-0.845,6.269
-2.37,-0.812,6.065
-2.532,-0.685,5.8
-2.546,-0.478,5.715
-2.44,-0.316,5.821
-2.019,-0.339,5.749
-1.498,-0.542,5.476
-1.084,-0.695,5.08
-0.851,-0.843,4.701
-0.667,-1.135,4.033
-0.739,-1.183,3.225
-1.591,-0.943,1.13
-1.591,-0.943,1.13
-2.107,-0.905,-0.666
-2.107,-0.905,-0.666
-2.21,-0.779,-1.427
-2.304,-0.555,-2.015
-2.183,-0.45,-2.457
-1.899,-0.39,-2.748
-1.45,-0.353,-3.033
-0.966,-0.304,-3.205
-0.383,-0.32,-3.463
-0.383,-0.32,-3.463
-0.315,-0.121,-4.121
-0.315,-0.121,-4.121
-0.343,-0.123,-4.709
-0.594,-0.038,-5.121
-0.594,-0.038,-5.121
-0.624,0.19,-6.217
-0.437,0.268,-6.749
-0.097,0.356,-7.177
0.438,0.352,-7.442
0.438,0.352,-7.442
0.752,0.227,-7.474
0.786,0.175,-7.362
0.773,0.12,-7.25
0.482,-0.024,-6.985
0.388,-0.122,-6.694
0.12,-0.194,-6.489
-0.196,-0.335,-5.969
-0.196,-0.335,-5.969
-0.503,-0.243,-5.277
-0.503,-0.243,-5.277
-0.929,0.111,-4.631
-0.999,0.316,-4.358
-0.999,0.316,-4.358
-0.695,0.787,-2.704
-0.695,0.787,-2.704
0,0.646,-0.919
0.178,0.526,-0.044
0.178,0.526,-0.044
0.143,0.466,1.088
0.143,0.466,1.088
0.059,0.528,2.087
0.125,0.441,2.724
0.125,0.441,2.724
0.474,0.297,3.941
0.474,0.297,3.941
1.314,0.163,5.168
1.672,0.085,5.65
1.672,0.085,5.65
2.304,0.059,5.892
2.304,0.059,5.892
2.401,0.09,5.564
2.243,0.21,5.287
2.243,0.21,5.287
2.301,0.163,4.98
2.301,0.163,4.98
2.622,-0.24,5.164
2.694,-0.393,5.126
2.694,-0.393,5.126
2.804,-0.576,4.717
2.85,-0.821,4.165
2.578,-0.765,3.475
2.162,-0.629,2.307
2.162,-0.629,2.307
1.297,-0.384,0.054
0.961,-0.213,-1.109
0.636,-0.049,-2.129
0.428,0.133,-2.934
0.249,0.27,-3.484
0.199,0.459,-3.982
0.19,0.638,-4.328
0.276,0.651,-4.553
0.406,0.595,-4.741
0.53,0.428,-4.816
0.478,0.408,-4.678
0.331,0.39,-4.803
0.248,0.274,-5.096
0.18,0.116,-5.324
0.18,0.116,-5.324
-0.05,0.007,-5.97
-0.221,0.051,-6.302
-0.398,0.084,-6.471
-0.448,0.005,-6.626
-0.558,-0.024,-6.732
-0.611,0,-6.741
-0.622,0.003,-6.687
-0.622,-0.03,-6.425
-0.659,0.016,-6.113
-0.9,0.072,-5.587
-1.027,0.147,-5.142
-1.052,0.12,-4.747
-1.077,0.106,-4.346
-1.109,0.156,-3.875
-1.221,0.202,-3.4
-1.216,0.307,-3.028
-1.178,0.385,-2.707
-1.101,0.471,-2.262
-1.121,0.541,-1.732
-1.294,0.653,-1.067
-1.45,0.67,-0.467
-1.408,0.557,0.033
-1.266,0.471,0.511
-1.243,0.436,0.947
-1.184,0.506,1.401
-1.065,0.462,1.909
-0.926,0.401,2.33
-0.823,0.275,2.77
-0.729,0.19,3.372
-0.69,0.139,4.016
-0.778,0.044,4.814
-0.621,-0.169,5.335
-0.444,-0.534,5.572
-0.359,-0.753,5.649
-0.499,-0.737,5.549
-0.814,-0.6,5.31
-1.082,-0.535,5.137
-1.203,-0.501,4.911
-1.324,-0.356,4.704
-1.272,-0.234,4.589
-0.822,-0.394,4.521
-0.114,-0.672,4.426
0.469,-0.875,4.123
0.469,-0.875,4.123
1.042,-1.324,3.496
0.803,-1.629,2.808
0.196,-1.833,2.175
-0.512,-1.907,1.416
-1.292,-1.886,0.606
-1.9,-1.885,-0.346
-2.386,-2.023,-1.561
-2.473,-2.525,-2.5
-2.751,-2.122,-1.511
-2.802,-0.951,-1.561
-2.536,-0.857,-1.931
-1.43,-1.571,-2.024
-0.918,-1.653,-2.657
-0.699,-1.976,-2.867
-0.796,-2.408,-2.452
-1.198,-2.407,-2.125
